{
  "id": "AtomoxetinMylan-10mg-Capsule-SE-AJ-MedicinalProductDef-BBDL",
  "type": "transaction",
  "resourceType": "Bundle",
  "entry": [
    {
      "resource": {
        "resourceType": "MedicinalProductDefinition",
        "id": "AtomoxetinMylan-10mg-Capsule-SE-AJ-MedicinalProductDef",
        "meta": {
          "versionId": "1",
          "lastUpdated": "2022-08-23T19:53:02.754+00:00"
        },
        "extension": [
          {
            "url": "http://ema.europa.eu/fhir/extension/authorisedDoseForm",
            "valueCoding": {
              "system": "http://spor.ema.europa.eu/v1/lists/200000000004",
              "code": "100000073375",
              "display": "Capsule, hard"
            }
          }
        ],
        "identifier": [
          {
            "system": "http://ema.europa.eu/fhir/mpId",
            "value": "SE-100004079-00055279"
          },
          {
            "system": "http://ema.europa.eu/fhir/eurdId",
            "value": "262"
          }
        ],
        "domain": {
          "coding": [
            {
              "system": "http://spor.ema.europa.eu/v1/lists/100000000004",
              "code": "100000000012",
              "display": "Human use"
            }
          ]
        },
        "status": {
          "coding": [
            {
              "system": "http://spor.ema.europa.eu/v1/lists/200000005003",
              "code": "200000005004",
              "display": "Current"
            }
          ]
        },
        "indication": "Behandling av ADHD (Attention Deficit Hyperactivity Disorder) hos barn (6 \u00e5r och \u00e4ldre), ungdomar och vuxna som en del i ett komplett behandlingsprogram.  Behandling skall p\u00e5b\u00f6rjas av en l\u00e4kare som \u00e4r specialiserad p\u00e5 behandling av ADHD, s\u00e5 som barnl\u00e4kare, barn/ungdomspsykiater, eller psykiater.  Diagnos skall st\u00e4llas enligt g\u00e4llande DSM-kriterier eller riktlinjerna i ICD. Hos vuxna b\u00f6r f\u00f6rekomsten av ADHD symtom ha bekr\u00e4ftats i barndomen.  Tredje parts bed\u00f6mning \u00e4r \u00f6nskv\u00e4rd och atomoxetin b\u00f6r inte initieras om det \u00e4r os\u00e4kert om ADHD symtom i barndomen kan bekr\u00e4ftas.  Diagnosen kan inte fastst\u00e4llas enbart utifr\u00e5n att ett eller flera symtom p\u00e5 ADHD bekr\u00e4ftats.  Baserat p\u00e5 klinisk bed\u00f6mning, b\u00f6r patienterna ha ADHD av minst moderat allvarlighetsgrad som kommer till uttryck i minst en moderat funktionsneds\u00e4ttning  inom tv\u00e5 eller fler livsomr\u00e5den (till exempel social, akademisk och/eller yrkesm\u00e4ssig f\u00f6rm\u00e5ga) som p\u00e5verkar flera aspekter av livet hos individen. Ytterligare information f\u00f6r s\u00e4ker anv\u00e4ndning av detta l\u00e4kemedel Ett komplett behandlingsprogram skall innefatta \u00e5tg\u00e4rder av psykologisk och social natur samt utbildning och ha f\u00f6r avsikt att stabilisera patienter med beteendesyndrom.  Detta k\u00e4nnetecknas av symtom som varat under en l\u00e4ngre tid och kan inkludera sv\u00e5righet att uppr\u00e4tth\u00e5lla uppm\u00e4rksamheten, distraherbarhet,  emotionell labilitet, impulsivitet, m\u00e5ttlig till sv\u00e5r hyperaktivitet, sm\u00e4rre neurologiska fynd och ett onormalt EEG.  Syndromet kan f\u00f6rekomma b\u00e5de med och utan inl\u00e4rningssv\u00e5righeter. L\u00e4kemedelsbehandling \u00e4r inte indicerad f\u00f6r alla patienter med detta syndrom.  Beslut att anv\u00e4nda atomoxetin m\u00e5ste grundas p\u00e5 en mycket noggrann bed\u00f6mning av symtomens och funktionsneds\u00e4ttningens sv\u00e5righetsgrad och varaktighet i f\u00f6rh\u00e5llande till patientens \u00e5lder.",
        "legalStatusOfSupply": {
          "coding": [
            {
              "system": "http://spor.ema.europa.eu/v1/lists/100000072051",
              "code": "100000072084",
              "display": "Medicinal product subject to medical prescription"
            }
          ]
        },
        "classification": [
          {
            "coding": [
              {
                "system": "http://spor.ema.europa.eu/v1/lists/100000093533",
                "code": "100000097726",
                "display": "N06BA09"
              }
            ]
          }
        ],
        "name": [
          {
            "productName": "Atomoxetin Mylan 10 mg Kapsel, h\u00e5rd",
            "namePart": [
              {
                "part": "Atomoxetin Mylan",
                "type": {
                  "coding": [
                    {
                      "system": "http://spor.ema.europa.eu/v1/lists/220000000000",
                      "code": "220000000003",
                      "display": "Scientific Name Part"
                    }
                  ]
                }
              },
              {
                "part": "10 mg",
                "type": {
                  "coding": [
                    {
                      "system": "http://spor.ema.europa.eu/v1/lists/220000000000",
                      "code": "220000000004",
                      "display": "Strength part"
                    }
                  ]
                }
              },
              {
                "part": "Kapsel, h\u00e5rd",
                "type": {
                  "coding": [
                    {
                      "system": "http://spor.ema.europa.eu/v1/lists/220000000000",
                      "code": "220000000005",
                      "display": "Pharmaceutical dose form part"
                    }
                  ]
                }
              }
            ],
            "countryLanguage": [
              {
                "country": {
                  "coding": [
                    {
                      "system": "http://spor.ema.europa.eu/v1/lists/100000000002",
                      "code": "100000000535",
                      "display": "Sweden"
                    }
                  ]
                },
                "language": {
                  "coding": [
                    {
                      "system": "http://spor.ema.europa.eu/v1/lists/100000072057",
                      "code": "100000072288",
                      "display": "Swedish"
                    }
                  ]
                }
              }
            ]
          }
        ]
      },
      "request": {
        "method": "PUT",
        "url": "MedicinalProductDefinition/AtomoxetinMylan-10mg-Capsule-SE-AJ-MedicinalProductDef"
      },
      "fullUrl": "https://hl7-eu.github.io/unicom-ig/branches/mpd-r4b/MedicinalProductDefinition/AtomoxetinMylan-10mg-Capsule-SE-AJ-MedicinalProductDef"
    },
    {
      "resource": {
        "resourceType": "RegulatedAuthorization",
        "id": "AtomoxetinMylan-10mg-Capsule-SE-AJ-RegulatedAuthorization",
        "meta": {
          "versionId": "1",
          "lastUpdated": "2022-08-23T19:53:02.775+00:00"
        },
        "identifier": [
          {
            "system": "http://ema.europa.eu/fhir/MarketingAuthorizationNumber",
            "value": "55279"
          }
        ],
        "subject": [
          {
            "reference": "MedicinalProductDefinition/AtomoxetinMylan-10mg-Capsule-SE-AJ-MedicinalProductDef"
          }
        ],
        "type": {
          "coding": [
            {
              "system": "http://spor.ema.europa.eu/v1/lists/220000000060",
              "code": "220000000061",
              "display": "Marketing Authorisation"
            }
          ]
        },
        "region": [
          {
            "coding": [
              {
                "system": "http://spor.ema.europa.eu/v1/lists/100000000002",
                "code": "100000000535",
                "display": "Sweden"
              }
            ]
          }
        ],
        "status": {
          "coding": [
            {
              "system": "http://spor.ema.europa.eu/v1/lists/100000072049",
              "code": "100000072099",
              "display": "Valid"
            }
          ]
        },
        "statusDate": "2018-01-12",
        "holder": {
          "identifier": {
            "system": "https://spor.ema.europa.eu/v1/locations",
            "value": "LOC-100005525"
          },
          "display": "Mylan AB"
        },
        "case": {
          "type": {
            "coding": [
              {
                "system": "http://ema.europa.eu/fhir/authorisationDateType",
                "code": "dateOfFirstAuthorisation",
                "display": "First Authorisation"
              }
            ]
          },
          "dateDateTime": "2018-01-12"
        }
      },
      "request": {
        "method": "PUT",
        "url": "RegulatedAuthorization/AtomoxetinMylan-10mg-Capsule-SE-AJ-RegulatedAuthorization"
      },
      "fullUrl": "https://hl7-eu.github.io/unicom-ig/branches/mpd-r4b/RegulatedAuthorization/AtomoxetinMylan-10mg-Capsule-SE-AJ-RegulatedAuthorization"
    },
    {
      "resource": {
        "resourceType": "PackagedProductDefinition",
        "id": "AtomoxetinMylan-10mg-Capsule-SE-AJ-PackagedProductDef",
        "meta": {
          "versionId": "1",
          "lastUpdated": "2022-08-23T19:53:02.799+00:00"
        },
        "extension": [
          {
            "url": "http://ema.europa.eu/fhir/extension/containedItemQuantity",
            "valueQuantity": {
              "value": 28,
              "unit": "Capsule",
              "system": "http://spor.ema.europa.eu/v1/lists/200000000014",
              "code": "200000002113"
            }
          }
        ],
        "packageFor": [
          {
            "reference": "MedicinalProductDefinition/AtomoxetinMylan-10mg-Capsule-SE-AJ-MedicinalProductDef"
          }
        ],
        "description": "Blister, 28 kapslar",
        "_description": {
          "extension": [
            {
              "url": "http://ema.europa.eu/fhir/extension/language",
              "valueCoding": {
                "system": "http://spor.ema.europa.eu/v1/lists/100000072057",
                "code": "100000072288",
                "display": "Swedish"
              }
            }
          ]
        },
        "marketingStatus": [
          {
            "country": {
              "coding": [
                {
                  "system": "http://spor.ema.europa.eu/v1/lists/100000000002",
                  "code": "100000000535",
                  "display": "Sweden"
                }
              ]
            },
            "status": {
              "coding": [
                {
                  "system": "http://spor.ema.europa.eu/v1/lists/100000072052",
                  "code": "100000072083",
                  "display": "Marketed"
                }
              ]
            }
          }
        ],
        "package": {
          "type": {
            "coding": [
              {
                "system": "https://spor.ema.europa.eu/v1/lists/100000073346",
                "code": "100000073498",
                "display": "Box"
              }
            ]
          },
          "quantity": 1,
          "material": [
            {
              "coding": [
                {
                  "system": "https://spor.ema.europa.eu/v1/lists/200000003199",
                  "code": "200000003529",
                  "display": "Cardboard"
                }
              ]
            }
          ],
          "shelfLifeStorage": [
            {
              "type": {
                "coding": [
                  {
                    "system": "https://spor.ema.europa.eu/v1/lists/100000073343",
                    "code": "100000073403",
                    "display": "Shelf life of the medicinal product as packaged for sale"
                  }
                ]
              },
              "periodDuration": {
                "value": 3,
                "unit": "Year",
                "system": "http://spor.ema.europa.eu/v1/lists/100000110633",
                "code": "200000003434"
              },
              "specialPrecautionsForStorage": [
                {
                  "coding": [
                    {
                      "system": "https://spor.ema.europa.eu/v1/lists/100000073344",
                      "code": "100000073424",
                      "display": "This medicinal product does not require any special storage conditions"
                    }
                  ]
                }
              ]
            }
          ],
          "package": [
            {
              "type": {
                "coding": [
                  {
                    "system": "https://spor.ema.europa.eu/v1/lists/100000073346",
                    "code": "100000073496",
                    "display": "Blister"
                  }
                ]
              },
              "quantity": 4,
              "material": [
                {
                  "coding": [
                    {
                      "system": "https://spor.ema.europa.eu/v1/lists/200000003199",
                      "code": "200000003222",
                      "display": "PolyVinyl Chloride"
                    }
                  ]
                },
                {
                  "coding": [
                    {
                      "system": "https://spor.ema.europa.eu/v1/lists/200000003199",
                      "code": "200000003200",
                      "display": "Aluminium"
                    }
                  ]
                },
                {
                  "coding": [
                    {
                      "system": "https://spor.ema.europa.eu/v1/lists/200000003199",
                      "code": "200000003225",
                      "display": "PolyVinylidene Chloride"
                    }
                  ]
                }
              ],
              "containedItem": [
                {
                  "item": {
                    "reference": {
                      "reference": "ManufacturedItemDefinition/AtomoxetinMylan-10mg-Capsule-SE-AJ-ManufacturedItemDef"
                    }
                  },
                  "amount": {
                    "value": 7,
                    "unit": "Capsule",
                    "system": "http://spor.ema.europa.eu/v1/lists/200000000014",
                    "code": "200000002113"
                  }
                }
              ]
            }
          ]
        }
      },
      "request": {
        "method": "PUT",
        "url": "PackagedProductDefinition/AtomoxetinMylan-10mg-Capsule-SE-AJ-PackagedProductDef"
      },
      "fullUrl": "https://hl7-eu.github.io/unicom-ig/branches/mpd-r4b/PackagedProductDefinition/AtomoxetinMylan-10mg-Capsule-SE-AJ-PackagedProductDef"
    },
    {
      "resource": {
        "resourceType": "ManufacturedItemDefinition",
        "id": "AtomoxetinMylan-10mg-Capsule-SE-AJ-ManufacturedItemDef",
        "meta": {
          "versionId": "1",
          "lastUpdated": "2022-08-23T19:53:02.809+00:00"
        },
        "status": "active",
        "manufacturedDoseForm": {
          "coding": [
            {
              "system": "http://spor.ema.europa.eu/v1/lists/200000000004",
              "code": "100000073375",
              "display": "Capsule, hard"
            }
          ]
        },
        "unitOfPresentation": {
          "coding": [
            {
              "system": "http://spor.ema.europa.eu/v1/lists/200000000014",
              "code": "200000002113",
              "display": "Capsule"
            }
          ]
        }
      },
      "request": {
        "method": "PUT",
        "url": "ManufacturedItemDefinition/AtomoxetinMylan-10mg-Capsule-SE-AJ-ManufacturedItemDef"
      },
      "fullUrl": "https://hl7-eu.github.io/unicom-ig/branches/mpd-r4b/ManufacturedItemDefinition/AtomoxetinMylan-10mg-Capsule-SE-AJ-ManufacturedItemDef"
    },
    {
      "resource": {
        "resourceType": "Ingredient",
        "id": "AtomoxetinMylan-10mg-Capsule-SE-AJ-Ingredient",
        "meta": {
          "versionId": "1",
          "lastUpdated": "2022-08-23T19:53:02.819+00:00"
        },
        "status": "active",
        "for": [
          {
            "reference": "MedicinalProductDefinition/AtomoxetinMylan-10mg-Capsule-SE-AJ-MedicinalProductDef"
          },
          {
            "reference": "ManufacturedItemDefinition/AtomoxetinMylan-10mg-Capsule-SE-AJ-ManufacturedItemDef"
          },
          {
            "reference": "AdministrableProductDefinitionAtomoxetinMylan-10mg-Capsule-SE-AJ-AdministrableProductDef"
          }
        ],
        "role": {
          "coding": [
            {
              "system": "http://spor.ema.europa.eu/v1/lists/100000072050",
              "code": "100000072072",
              "display": "Active"
            }
          ]
        },
        "substance": {
          "code": {
            "concept": {
              "coding": [
                {
                  "system": "http://spor.azure-api.net/sms/api/v2/SubstanceDefinition",
                  "code": "100000137397",
                  "display": "Atomoxetine hydrochloride"
                }
              ]
            }
          },
          "strength": [
            {
              "presentationRatio": {
                "numerator": {
                  "value": 11.43,
                  "_comparator": {
                    "extension": [
                      {
                        "url": "http://ema.europa.eu/fhir/extension/comparator",
                        "valueCoding": {
                          "system": "https://spor.ema.europa.eu/v1/lists/100000000008",
                          "code": "100000000049",
                          "display": "equal to"
                        }
                      }
                    ]
                  },
                  "unit": "milligram(s)",
                  "system": "https://spor.ema.europa.eu/v1/lists/100000110633",
                  "code": "100000110655"
                },
                "denominator": {
                  "value": 1,
                  "unit": "Capsule",
                  "system": "https://spor.ema.europa.eu/v1/lists/200000000014",
                  "code": "200000002113"
                }
              },
              "referenceStrength": [
                {
                  "substance": {
                    "concept": {
                      "coding": [
                        {
                          "system": "https://spor.ema.europa.eu/v2/SubstanceDefinition",
                          "code": "100000090524",
                          "display": "Atomoxetine"
                        }
                      ]
                    }
                  },
                  "strengthRatio": {
                    "numerator": {
                      "value": 10,
                      "_comparator": {
                        "extension": [
                          {
                            "url": "http://ema.europa.eu/fhir/extension/comparator",
                            "valueCoding": {
                              "system": "https://spor.ema.europa.eu/v1/lists/100000000008",
                              "code": "100000000049",
                              "display": "equal to"
                            }
                          }
                        ]
                      },
                      "unit": "milligram(s)",
                      "system": "https://spor.ema.europa.eu/v1/lists/100000110633",
                      "code": "100000110655"
                    },
                    "denominator": {
                      "value": 1,
                      "unit": "Capsule",
                      "system": "https://spor.ema.europa.eu/v1/lists/200000000014",
                      "code": "200000002113"
                    }
                  }
                }
              ]
            }
          ]
        }
      },
      "request": {
        "method": "PUT",
        "url": "Ingredient/AtomoxetinMylan-10mg-Capsule-SE-AJ-Ingredient"
      },
      "fullUrl": "https://hl7-eu.github.io/unicom-ig/branches/mpd-r4b/Ingredient/AtomoxetinMylan-10mg-Capsule-SE-AJ-Ingredient"
    }
  ]
}