{
  "id": "BupropionSandoz-150mg-Tablet-SE-BS-MedicinalProductDefinition-BBDL",
  "type": "transaction",
  "resourceType": "Bundle",
  "entry": [
    {
      "resource": {
        "resourceType": "MedicinalProductDefinition",
        "id": "BupropionSandoz-150mg-Tablet-SE-BS-MedicinalProductDefinition",
        "meta": {
          "versionId": "1",
          "lastUpdated": "2022-10-02T08:16:43.974+00:00"
        },
        "extension": [
          {
            "url": "http://ema.europa.eu/fhir/extension/authorisedDoseForm",
            "valueCoding": {
              "system": "http://spor.ema.europa.eu/v1/lists/200000000004~200000000006~200000000007~200000000008",
              "code": "100000073668",
              "display": "Modified-release tablet"
            }
          }
        ],
        "identifier": [
          {
            "system": "http://ema.europa.eu/fhir/mpId",
            "value": "SE-100002152-00050226"
          },
          {
            "system": "http://ema.europa.eu/fhir/eurdId",
            "value": "461"
          }
        ],
        "domain": {
          "coding": [
            {
              "system": "http://spor.ema.europa.eu/v1/lists/100000000004",
              "code": "100000000012",
              "display": "Human use"
            }
          ]
        },
        "status": {
          "coding": [
            {
              "system": "http://spor.ema.europa.eu/v1/lists/200000005003",
              "code": "200000005004",
              "display": "Current"
            }
          ]
        },
        "indication": "Bupropion Sandoz \u00e4r indicerat f\u00f6r behandling av egentlig depression.",
        "legalStatusOfSupply": {
          "coding": [
            {
              "system": "http://spor.ema.europa.eu/v1/lists/100000072051",
              "code": "100000072084",
              "display": "Medicinal product subject to medical prescription"
            }
          ]
        },
        "classification": [
          {
            "coding": [
              {
                "system": "http://spor.ema.europa.eu/v1/lists/100000093533",
                "code": "100000097705",
                "display": "N06AX12"
              }
            ]
          }
        ],
        "name": [
          {
            "productName": "Bupropion Sandoz 150 mg tablett med modifierad fris\u00e4ttning",
            "namePart": [
              {
                "part": "Bupropion Sandoz",
                "type": {
                  "coding": [
                    {
                      "system": "http://spor.ema.europa.eu/v1/lists/220000000000",
                      "code": "220000000003",
                      "display": "Scientific name part"
                    }
                  ]
                }
              },
              {
                "part": "150 mg",
                "type": {
                  "coding": [
                    {
                      "system": "http://spor.ema.europa.eu/v1/lists/220000000000",
                      "code": "220000000004",
                      "display": "Strength part"
                    }
                  ]
                }
              },
              {
                "part": "Tablett med modifierad fris\u00e4ttning",
                "type": {
                  "coding": [
                    {
                      "system": "http://spor.ema.europa.eu/v1/lists/220000000000",
                      "code": "220000000005",
                      "display": "Pharmaceutical dose form part"
                    }
                  ]
                }
              }
            ],
            "countryLanguage": [
              {
                "country": {
                  "coding": [
                    {
                      "system": "http://spor.ema.europa.eu/v1/lists/100000000002",
                      "code": "100000000535",
                      "display": "Sweden"
                    }
                  ]
                },
                "language": {
                  "coding": [
                    {
                      "system": "http://spor.ema.europa.eu/v1/lists/100000072057",
                      "code": "100000072288",
                      "display": "Swedish"
                    }
                  ]
                }
              }
            ]
          }
        ]
      },
      "request": {
        "method": "PUT",
        "url": "MedicinalProductDefinition/BupropionSandoz-150mg-Tablet-SE-BS-MedicinalProductDefinition"
      },
      "fullUrl": "https://hl7-eu.github.io/unicom-ig/branches/mpd-r4b/MedicinalProductDefinition/BupropionSandoz-150mg-Tablet-SE-BS-MedicinalProductDefinition"
    },
    {
      "resource": {
        "resourceType": "RegulatedAuthorization",
        "id": "BupropionSandoz-150mg-Tablet-SE-BS-RegulatedAuthorization",
        "meta": {
          "versionId": "1",
          "lastUpdated": "2022-10-02T08:16:44.057+00:00"
        },
        "identifier": [
          {
            "system": "http://ema.europa.eu/fhir/MarketingAuthorizationNumber",
            "value": "50226"
          }
        ],
        "subject": [
          {
            "reference": "MedicinalProductDefinition/BupropionSandoz-150mg-Tablet-SE-BS-MedicinalProductDefinition"
          }
        ],
        "type": {
          "coding": [
            {
              "system": "http://spor.ema.europa.eu/v1/lists/220000000060",
              "code": "220000000061",
              "display": "Marketing Authorisation"
            }
          ]
        },
        "region": [
          {
            "coding": [
              {
                "system": "http://spor.ema.europa.eu/v1/lists/100000000002",
                "code": "100000000535",
                "display": "Sweden"
              }
            ]
          }
        ],
        "status": {
          "coding": [
            {
              "system": "http://spor.ema.europa.eu/v1/lists/100000072049",
              "code": "100000072099",
              "display": "Valid"
            }
          ]
        },
        "statusDate": "2015-04-09",
        "holder": {
          "identifier": {
            "system": "https://spor.ema.europa.eu/v1/locations",
            "value": "LOC-100005224"
          },
          "display": "Sandoz A/S"
        },
        "case": {
          "type": {
            "coding": [
              {
                "system": "http://ema.europa.eu/fhir/authorisationDateType",
                "code": "dateOfFirstAuthorisation",
                "display": "First Authorisation"
              }
            ]
          },
          "dateDateTime": "2015-04-09"
        }
      },
      "request": {
        "method": "PUT",
        "url": "RegulatedAuthorization/BupropionSandoz-150mg-Tablet-SE-BS-RegulatedAuthorization"
      },
      "fullUrl": "https://hl7-eu.github.io/unicom-ig/branches/mpd-r4b/RegulatedAuthorization/BupropionSandoz-150mg-Tablet-SE-BS-RegulatedAuthorization"
    },
    {
      "resource": {
        "resourceType": "PackagedProductDefinition",
        "id": "BupropionSandoz-150mg-Tablet-SE-BS-PackagedProductDefinition",
        "meta": {
          "versionId": "1",
          "lastUpdated": "2022-10-02T08:16:44.096+00:00"
        },
        "extension": [
          {
            "url": "http://ema.europa.eu/fhir/extension/containedItemQuantity",
            "valueQuantity": {
              "value": 30,
              "unit": "Tablet",
              "system": "http://spor.ema.europa.eu/v1/lists/200000000014",
              "code": "200000002152"
            }
          }
        ],
        "packageFor": [
          {
            "reference": "MedicinalProductDefinition/BupropionSandoz-150mg-Tablet-SE-BS-MedicinalProductDefinition"
          }
        ],
        "description": "Burk, 30 tabletter",
        "_description": {
          "extension": [
            {
              "url": "http://ema.europa.eu/fhir/extension/language",
              "valueCoding": {
                "system": "http://spor.ema.europa.eu/v1/lists/100000072057",
                "code": "100000072288",
                "display": "Swedish"
              }
            }
          ]
        },
        "marketingStatus": [
          {
            "country": {
              "coding": [
                {
                  "system": "http://spor.ema.europa.eu/v1/lists/100000000002",
                  "code": "100000000535",
                  "display": "Sweden"
                }
              ]
            },
            "status": {
              "coding": [
                {
                  "system": "http://spor.ema.europa.eu/v1/lists/100000072052",
                  "code": "100000072083",
                  "display": "Marketed"
                }
              ]
            }
          }
        ],
        "package": {
          "type": {
            "coding": [
              {
                "system": "https://spor.ema.europa.eu/v1/lists/100000073346",
                "code": "100000073498",
                "display": "Box"
              }
            ]
          },
          "quantity": 1,
          "material": [
            {
              "coding": [
                {
                  "system": "https://spor.ema.europa.eu/v1/lists/200000003199",
                  "code": "200000003529",
                  "display": "Cardboard"
                }
              ]
            }
          ],
          "package": [
            {
              "type": {
                "coding": [
                  {
                    "system": "https://spor.ema.europa.eu/v1/lists/100000073346",
                    "code": "100000073497",
                    "display": "Bottle"
                  }
                ]
              },
              "quantity": 1,
              "material": [
                {
                  "coding": [
                    {
                      "system": "https://spor.ema.europa.eu/v1/lists/200000003199",
                      "code": "200000003215",
                      "display": "High Density PolyEthylene"
                    }
                  ]
                }
              ],
              "containedItem": [
                {
                  "item": {
                    "reference": {
                      "reference": "ManufacturedItemDefinition/BupropionSandoz-150mg-Tablet-SE-BS-ManufacturedItemDefinition"
                    }
                  },
                  "amount": {
                    "value": 30,
                    "unit": "Tablet",
                    "system": "http://spor.ema.europa.eu/v1/lists/100000110633~200000000014",
                    "code": "200000002152"
                  }
                }
              ]
            }
          ]
        }
      },
      "request": {
        "method": "PUT",
        "url": "PackagedProductDefinition/BupropionSandoz-150mg-Tablet-SE-BS-PackagedProductDefinition"
      },
      "fullUrl": "https://hl7-eu.github.io/unicom-ig/branches/mpd-r4b/PackagedProductDefinition/BupropionSandoz-150mg-Tablet-SE-BS-PackagedProductDefinition"
    },
    {
      "resource": {
        "resourceType": "PackagedProductDefinition",
        "id": "BupropionSandoz-150mg-Tablet-SE-BS-PackagedProductDefinition-02",
        "meta": {
          "versionId": "1",
          "lastUpdated": "2022-10-02T08:16:44.117+00:00"
        },
        "extension": [
          {
            "url": "http://ema.europa.eu/fhir/extension/containedItemQuantity",
            "valueQuantity": {
              "value": 90,
              "unit": "Tablet",
              "system": "http://spor.ema.europa.eu/v1/lists/200000000014",
              "code": "200000002152"
            }
          }
        ],
        "packageFor": [
          {
            "reference": "MedicinalProductDefinition/BupropionSandoz-150mg-Tablet-SE-BS-MedicinalProductDefinition"
          }
        ],
        "description": "Burk, 90 tabletter",
        "_description": {
          "extension": [
            {
              "url": "http://ema.europa.eu/fhir/extension/language",
              "valueCoding": {
                "system": "http://spor.ema.europa.eu/v1/lists/100000072057",
                "code": "100000072288",
                "display": "Swedish"
              }
            }
          ]
        },
        "marketingStatus": [
          {
            "country": {
              "coding": [
                {
                  "system": "http://spor.ema.europa.eu/v1/lists/100000000002",
                  "code": "100000000535",
                  "display": "Sweden"
                }
              ]
            },
            "status": {
              "coding": [
                {
                  "system": "http://spor.ema.europa.eu/v1/lists/100000072052",
                  "code": "100000072083",
                  "display": "Marketed"
                }
              ]
            }
          }
        ],
        "package": {
          "type": {
            "coding": [
              {
                "system": "https://spor.ema.europa.eu/v1/lists/100000073346",
                "code": "100000073498",
                "display": "Box"
              }
            ]
          },
          "quantity": 1,
          "material": [
            {
              "coding": [
                {
                  "system": "https://spor.ema.europa.eu/v1/lists/200000003199",
                  "code": "200000003529",
                  "display": "Cardboard"
                }
              ]
            }
          ],
          "package": [
            {
              "type": {
                "coding": [
                  {
                    "system": "https://spor.ema.europa.eu/v1/lists/100000073346",
                    "code": "100000073497",
                    "display": "Bottle"
                  }
                ]
              },
              "quantity": 1,
              "material": [
                {
                  "coding": [
                    {
                      "system": "https://spor.ema.europa.eu/v1/lists/200000003199",
                      "code": "200000003215",
                      "display": "High Density PolyEthylene"
                    }
                  ]
                }
              ],
              "containedItem": [
                {
                  "item": {
                    "reference": {
                      "reference": "ManufacturedItemDefinition/BupropionSandoz-150mg-Tablet-SE-BS-ManufacturedItemDefinition"
                    }
                  },
                  "amount": {
                    "value": 90,
                    "unit": "Tablet",
                    "system": "http://spor.ema.europa.eu/v1/lists/100000110633~200000000014",
                    "code": "200000002152"
                  }
                }
              ]
            }
          ]
        }
      },
      "request": {
        "method": "PUT",
        "url": "PackagedProductDefinition/BupropionSandoz-150mg-Tablet-SE-BS-PackagedProductDefinition-02"
      },
      "fullUrl": "https://hl7-eu.github.io/unicom-ig/branches/mpd-r4b/PackagedProductDefinition/BupropionSandoz-150mg-Tablet-SE-BS-PackagedProductDefinition-02"
    },
    {
      "resource": {
        "resourceType": "ManufacturedItemDefinition",
        "id": "BupropionSandoz-150mg-Tablet-SE-BS-ManufacturedItemDefinition",
        "meta": {
          "versionId": "1",
          "lastUpdated": "2022-10-02T08:16:44.136+00:00"
        },
        "status": "active",
        "manufacturedDoseForm": {
          "coding": [
            {
              "system": "http://spor.ema.europa.eu/v1/lists/200000000004",
              "code": "100000073668",
              "display": "Modified-release tablet"
            }
          ]
        },
        "unitOfPresentation": {
          "coding": [
            {
              "system": "http://spor.ema.europa.eu/v1/lists/200000000014",
              "code": "200000002152",
              "display": "Tablet"
            }
          ]
        }
      },
      "request": {
        "method": "PUT",
        "url": "ManufacturedItemDefinition/BupropionSandoz-150mg-Tablet-SE-BS-ManufacturedItemDefinition"
      },
      "fullUrl": "https://hl7-eu.github.io/unicom-ig/branches/mpd-r4b/ManufacturedItemDefinition/BupropionSandoz-150mg-Tablet-SE-BS-ManufacturedItemDefinition"
    },
    {
      "resource": {
        "resourceType": "Ingredient",
        "id": "BupropionSandoz-150mg-Tablet-SE-BS-Ingredient",
        "meta": {
          "versionId": "1",
          "lastUpdated": "2022-10-02T08:16:44.153+00:00"
        },
        "status": "active",
        "for": [
          {
            "reference": "MedicinalProductDefinition/BupropionSandoz-150mg-Tablet-SE-BS-MedicinalProductDefinition"
          },
          {
            "reference": "ManufacturedItemDefinition/BupropionSandoz-150mg-Tablet-SE-BS-ManufacturedItemDefinition"
          },
          {
            "reference": "AdministrableProductDefinition/BupropionSandoz-150mg-Tablet-SE-BS-AdministrableProductDef"
          }
        ],
        "role": {
          "coding": [
            {
              "system": "http://spor.ema.europa.eu/v1/lists/100000072050",
              "code": "100000072072",
              "display": "Active"
            }
          ]
        },
        "substance": {
          "code": {
            "concept": {
              "coding": [
                {
                  "system": "http://spor.azure-api.net/sms/api/v2/SubstanceDefinition",
                  "code": "100000090431",
                  "display": "Bupropion hydrochloride"
                }
              ]
            }
          },
          "strength": [
            {
              "presentationRatio": {
                "numerator": {
                  "value": 150,
                  "_comparator": {
                    "extension": [
                      {
                        "url": "http://ema.europa.eu/fhir/extension/comparator",
                        "valueCoding": {
                          "system": "https://spor.ema.europa.eu/v1/lists/100000000008",
                          "code": "100000000049",
                          "display": "equal to"
                        }
                      }
                    ]
                  },
                  "unit": "milligram(s)",
                  "system": "http://spor.ema.europa.eu/v1/lists/100000110633",
                  "code": "100000110655"
                },
                "denominator": {
                  "value": 1,
                  "unit": "tablet",
                  "system": "http://spor.ema.europa.eu/v1/lists/100000110633",
                  "code": "200000002152"
                }
              },
              "referenceStrength": [
                {
                  "substance": {
                    "concept": {
                      "coding": [
                        {
                          "system": "https://spor.ema.europa.eu/v2/SubstanceDefinition",
                          "code": "100000088891",
                          "display": "Bupropion"
                        }
                      ]
                    }
                  },
                  "strengthRatio": {
                    "numerator": {
                      "value": 130.2,
                      "_comparator": {
                        "extension": [
                          {
                            "url": "http://ema.europa.eu/fhir/extension/comparator",
                            "valueCoding": {
                              "system": "https://spor.ema.europa.eu/v1/lists/100000000008",
                              "code": "100000000049",
                              "display": "equal to"
                            }
                          }
                        ]
                      },
                      "unit": "milligram(s)",
                      "system": "https://spor.ema.europa.eu/v1/lists/100000110633",
                      "code": "100000110655"
                    },
                    "denominator": {
                      "value": 1,
                      "unit": "tablet",
                      "system": "http://spor.ema.europa.eu/v1/lists/100000110633",
                      "code": "200000002152"
                    }
                  }
                }
              ]
            }
          ]
        }
      },
      "request": {
        "method": "PUT",
        "url": "Ingredient/BupropionSandoz-150mg-Tablet-SE-BS-Ingredient"
      },
      "fullUrl": "https://hl7-eu.github.io/unicom-ig/branches/mpd-r4b/Ingredient/BupropionSandoz-150mg-Tablet-SE-BS-Ingredient"
    }
  ]
}