{
  "id": "Curocef1500mgPulver-A-HL-MedicinalProductDefinition-BBDL",
  "type": "transaction",
  "resourceType": "Bundle",
  "entry": [
    {
      "resource": {
        "resourceType": "MedicinalProductDefinition",
        "id": "Curocef1500mgPulver-A-HL-MedicinalProductDefinition",
        "meta": {
          "versionId": "1",
          "lastUpdated": "2022-09-01T20:20:03.316+00:00"
        },
        "extension": [
          {
            "url": "http://ema.europa.eu/fhir/extension/authorisedDoseForm",
            "valueCoding": {
              "extension": [
                {
                  "url": "http://ema.europa.eu/fhir/extension/termVersion",
                  "valueInteger": 1
                }
              ],
              "system": "https://spor.ema.europa.eu/v1/lists/200000000004",
              "code": "100000116186",
              "display": "Powder for solution for injection/infusion"
            }
          }
        ],
        "identifier": [
          {
            "system": "http://ema.europa.eu/fhir/mpId",
            "value": "AT-16569"
          }
        ],
        "domain": {
          "coding": [
            {
              "extension": [
                {
                  "url": "http://ema.europa.eu/fhir/extension/termVersion",
                  "valueInteger": 1
                }
              ],
              "system": "https://spor.ema.europa.eu/v1/lists/100000000004",
              "code": "100000000012",
              "display": "Human use"
            }
          ]
        },
        "indication": "Curocef wird angewendet zur Behandlung der nachfolgend genannten Infektionen bei Erwachsenen und Kindern, einschlie\u00dflich Neugeborenen (von Geburt an) ...",
        "_indication": {
          "extension": [
            {
              "url": "http://ema.europa.eu/fhir/extension/language",
              "valueCoding": {
                "system": "http://spor.ema.europa.eu/v1/lists/100000072057",
                "code": "100000072178",
                "display": "German"
              }
            }
          ]
        },
        "legalStatusOfSupply": {
          "coding": [
            {
              "extension": [
                {
                  "url": "http://ema.europa.eu/fhir/extension/termVersion",
                  "valueInteger": 1
                }
              ],
              "system": "https://spor.ema.europa.eu/v1/lists/100000072051",
              "code": "100000072079",
              "display": "Medicinal product on medical prescription for non-renewable delivery"
            }
          ]
        },
        "additionalMonitoringIndicator": {
          "coding": [
            {
              "system": "http://ema.europa.eu/fhir/additionalMonitoringIndicator",
              "code": "True",
              "display": "True"
            }
          ]
        },
        "pediatricUseIndicator": {
          "coding": [
            {
              "system": "http://ema.europa.eu/fhir/paediatricUseIndicator",
              "code": "True",
              "display": "True"
            }
          ]
        },
        "classification": [
          {
            "coding": [
              {
                "extension": [
                  {
                    "url": "http://ema.europa.eu/fhir/extension/termVersion",
                    "valueInteger": 1
                  }
                ],
                "system": "https://spor.ema.europa.eu/v1/lists/200000000324",
                "code": "200000003517",
                "display": "Other"
              }
            ]
          },
          {
            "coding": [
              {
                "extension": [
                  {
                    "url": "http://ema.europa.eu/fhir/extension/termVersion",
                    "valueInteger": 1
                  }
                ],
                "system": "https://spor.ema.europa.eu/v1/lists/100000116045",
                "code": "100000116053",
                "display": "Well-established use application (Article 10a of Directive No 2001/83/EC)"
              }
            ]
          },
          {
            "coding": [
              {
                "extension": [
                  {
                    "url": "http://ema.europa.eu/fhir/extension/termVersion",
                    "valueInteger": 1
                  }
                ],
                "system": "https://spor.ema.europa.eu/v1/lists/100000093533",
                "code": "100000096183",
                "display": "J01DC02"
              }
            ]
          },
          {
            "coding": [
              {
                "extension": [
                  {
                    "url": "http://ema.europa.eu/fhir/extension/termVersion",
                    "valueInteger": 1
                  }
                ],
                "system": "https://spor.ema.europa.eu/v1/lists/100000155526",
                "code": "100000155527",
                "display": "Chemical"
              }
            ]
          }
        ],
        "attachedDocument": [
          {
            "reference": "DocumentReference/Curocef1500mgPulver-A-HL-DocumentReference01"
          }
        ],
        "masterFile": [
          {
            "reference": "#mfl1"
          }
        ],
        "contact": [
          {
            "type": {
              "coding": [
                {
                  "extension": [
                    {
                      "url": "http://ema.europa.eu/fhir/extension/termVersion",
                      "valueInteger": 1
                    }
                  ],
                  "system": "https://spor.ema.europa.eu/v1/lists/100000154441",
                  "code": "100000155057",
                  "display": "Qualified Person in the EEA for Pharmacovigilance"
                }
              ]
            },
            "contact": {
              "reference": "#qppv1"
            }
          },
          {
            "type": {
              "coding": [
                {
                  "extension": [
                    {
                      "url": "http://ema.europa.eu/fhir/extension/termVersion",
                      "valueInteger": 3
                    }
                  ],
                  "system": "http://spor.ema.europa.eu/v1/lists/100000154441",
                  "code": "200000017719"
                }
              ]
            },
            "contact": {
              "reference": "#phvenq1"
            }
          }
        ],
        "name": [
          {
            "productName": "Curocef 1500 mg Pulver zur Herstellung einer Injektions- oder Infusionsl\u00f6sung",
            "namePart": [
              {
                "part": "Curocef",
                "type": {
                  "coding": [
                    {
                      "extension": [
                        {
                          "url": "http://ema.europa.eu/fhir/extension/termVersion",
                          "valueInteger": 1
                        }
                      ],
                      "system": "https://spor.ema.europa.eu/v1/lists/220000000000",
                      "code": "220000000002",
                      "display": "Invented name part"
                    }
                  ]
                }
              },
              {
                "part": "1500 mg",
                "type": {
                  "coding": [
                    {
                      "extension": [
                        {
                          "url": "http://ema.europa.eu/fhir/extension/termVersion",
                          "valueInteger": 1
                        }
                      ],
                      "system": "https://spor.ema.europa.eu/v1/lists/220000000000",
                      "code": "220000000004",
                      "display": "Strength part"
                    }
                  ]
                }
              },
              {
                "part": "Pulver zur Herstellung einer Injektions- oder Infusionsl\u00f6sung",
                "type": {
                  "coding": [
                    {
                      "extension": [
                        {
                          "url": "http://ema.europa.eu/fhir/extension/termVersion",
                          "valueInteger": 1
                        }
                      ],
                      "system": "https://spor.ema.europa.eu/v1/lists/220000000000",
                      "code": "220000000005",
                      "display": "Pharmaceutical dose form part"
                    }
                  ]
                }
              }
            ],
            "countryLanguage": [
              {
                "country": {
                  "coding": [
                    {
                      "extension": [
                        {
                          "url": "http://ema.europa.eu/fhir/extension/termVersion",
                          "valueInteger": 1
                        }
                      ],
                      "system": "https://spor.ema.europa.eu/v1/lists/100000000002",
                      "code": "100000000330",
                      "display": "Austria"
                    }
                  ]
                },
                "language": {
                  "coding": [
                    {
                      "extension": [
                        {
                          "url": "http://ema.europa.eu/fhir/extension/termVersion",
                          "valueInteger": 1
                        }
                      ],
                      "system": "https://spor.ema.europa.eu/v1/lists/100000072057",
                      "code": "100000072178",
                      "display": "German"
                    }
                  ]
                }
              }
            ]
          }
        ],
        "operation": [
          {
            "type": {
              "concept": {
                "coding": [
                  {
                    "extension": [
                      {
                        "url": "http://ema.europa.eu/fhir/extension/termVersion",
                        "valueInteger": 1
                      }
                    ],
                    "system": "https://spor.ema.europa.eu/v1/lists/100000160406",
                    "code": "100000160467",
                    "display": "Manufacture of active substance"
                  }
                ]
              }
            },
            "effectiveDate": {
              "start": "2016-07-17"
            },
            "organization": [
              {
                "identifier": {
                  "system": "https://spor.ema.europa.eu/v1/locations",
                  "value": "LOC-100000004"
                },
                "display": "Austrian Agency For Health And Food Safety"
              }
            ],
            "confidentialityIndicator": {
              "coding": [
                {
                  "extension": [
                    {
                      "url": "http://ema.europa.eu/fhir/extension/termVersion",
                      "valueInteger": 1
                    }
                  ],
                  "system": "https://spor.ema.europa.eu/v1/lists/200000004983",
                  "code": "200000004984",
                  "display": "Confidential"
                }
              ]
            }
          },
          {
            "type": {
              "concept": {
                "coding": [
                  {
                    "extension": [
                      {
                        "url": "http://ema.europa.eu/fhir/extension/termVersion",
                        "valueInteger": 1
                      }
                    ],
                    "system": "https://spor.ema.europa.eu/v1/lists/100000160406",
                    "code": "100000160407",
                    "display": "Manufacturer responsible for batch certification"
                  }
                ]
              }
            },
            "effectiveDate": {
              "start": "2010-12-22"
            },
            "organization": [
              {
                "identifier": {
                  "system": "https://spor.ema.europa.eu/v1/locations",
                  "value": "LOC-100050477"
                },
                "display": "Acs Dobfar S.P.A."
              }
            ],
            "confidentialityIndicator": {
              "coding": [
                {
                  "extension": [
                    {
                      "url": "http://ema.europa.eu/fhir/extension/termVersion",
                      "valueInteger": 1
                    }
                  ],
                  "system": "https://spor.ema.europa.eu/v1/lists/200000004983",
                  "code": "200000004985",
                  "display": "Public"
                }
              ]
            }
          },
          {
            "type": {
              "concept": {
                "coding": [
                  {
                    "extension": [
                      {
                        "url": "http://ema.europa.eu/fhir/extension/termVersion",
                        "valueInteger": 1
                      }
                    ],
                    "system": "https://spor.ema.europa.eu/v1/lists/100000160406",
                    "code": "100000160464",
                    "display": "Secondary packaging"
                  }
                ]
              }
            },
            "effectiveDate": {
              "start": "2020-03-09"
            },
            "organization": [
              {
                "identifier": {
                  "system": "https://spor.ema.europa.eu/v1/locations",
                  "value": "LOC-100000004"
                },
                "display": "Austrian Agency For Health And Food Safety"
              }
            ],
            "confidentialityIndicator": {
              "coding": [
                {
                  "extension": [
                    {
                      "url": "http://ema.europa.eu/fhir/extension/termVersion",
                      "valueInteger": 1
                    }
                  ],
                  "system": "https://spor.ema.europa.eu/v1/lists/200000004983",
                  "code": "200000004984",
                  "display": "Confidential"
                }
              ]
            }
          },
          {
            "type": {
              "concept": {
                "coding": [
                  {
                    "extension": [
                      {
                        "url": "http://ema.europa.eu/fhir/extension/termVersion",
                        "valueInteger": 1
                      }
                    ],
                    "system": "https://spor.ema.europa.eu/v1/lists/100000160406",
                    "code": "100000160463",
                    "display": "Primary packaging"
                  }
                ]
              }
            },
            "effectiveDate": {
              "start": "2020-03-09"
            },
            "organization": [
              {
                "identifier": {
                  "system": "https://spor.ema.europa.eu/v1/locations",
                  "value": "LOC-100000004"
                },
                "display": "Austrian Agency For Health And Food Safety"
              }
            ],
            "confidentialityIndicator": {
              "coding": [
                {
                  "extension": [
                    {
                      "url": "http://ema.europa.eu/fhir/extension/termVersion",
                      "valueInteger": 1
                    }
                  ],
                  "system": "https://spor.ema.europa.eu/v1/lists/200000004983",
                  "code": "200000004984",
                  "display": "Confidential"
                }
              ]
            }
          }
        ]
      },
      "request": {
        "method": "PUT",
        "url": "MedicinalProductDefinition/Curocef1500mgPulver-A-HL-MedicinalProductDefinition"
      },
      "fullUrl": "https://hl7-eu.github.io/unicom-ig/branches/mpd-r4b/MedicinalProductDefinition/Curocef1500mgPulver-A-HL-MedicinalProductDefinition"
    },
    {
      "resource": {
        "resourceType": "RegulatedAuthorization",
        "id": "Curocef1500mgPulver-A-HL-RegulatedAuthorization03",
        "meta": {
          "versionId": "1",
          "lastUpdated": "2022-09-01T20:20:05.585+00:00"
        },
        "identifier": [
          {
            "system": "http://ema.europa.eu/fhir/marketingAuthorizationNumber",
            "value": "16569"
          }
        ],
        "subject": [
          {
            "reference": "MedicinalProductDefinition/Curocef1500mgPulver-A-HL-MedicinalProductDefinition"
          }
        ],
        "type": {
          "coding": [
            {
              "extension": [
                {
                  "url": "http://ema.europa.eu/fhir/extension/termVersion",
                  "valueInteger": 1
                }
              ],
              "system": "https://spor.ema.europa.eu/v1/lists/220000000060",
              "code": "220000000061",
              "display": "Marketing Authorisation"
            }
          ]
        },
        "region": [
          {
            "coding": [
              {
                "extension": [
                  {
                    "url": "http://ema.europa.eu/fhir/extension/termVersion",
                    "valueInteger": 1
                  }
                ],
                "system": "https://spor.ema.europa.eu/v1/lists/100000000002",
                "code": "100000000330",
                "display": "Austria"
              }
            ]
          }
        ],
        "status": {
          "coding": [
            {
              "extension": [
                {
                  "url": "http://ema.europa.eu/fhir/extension/termVersion",
                  "valueInteger": 1
                }
              ],
              "system": "https://spor.ema.europa.eu/v1/lists/100000072049",
              "code": "100000072099",
              "display": "Valid"
            }
          ]
        },
        "statusDate": "2021-08-18",
        "holder": {
          "identifier": {
            "system": "https://spor.ema.europa.eu/v1/locations",
            "value": "LOC-100000004"
          },
          "display": "Austrian Agency For Health And Food Safety"
        },
        "regulator": {
          "identifier": {
            "system": "https://spor.ema.europa.eu/v1/locations",
            "value": "LOC-10000032"
          },
          "display": "Health Products Regulatory Authority"
        },
        "case": {
          "identifier": {
            "system": "http://ema.europa.eu/fhir/procedureIdentifierNumber",
            "value": "IE/H/0655/001"
          },
          "type": {
            "coding": [
              {
                "extension": [
                  {
                    "url": "http://ema.europa.eu/fhir/extension/termVersion",
                    "valueInteger": 1
                  }
                ],
                "system": "https://spor.ema.europa.eu/v1/lists/100000154442",
                "code": "100000155061",
                "display": "Mutual Recognition Procedure"
              }
            ]
          },
          "datePeriod": {
            "start": "2009-10-29",
            "end": "2011-03-03"
          },
          "application": [
            {
              "identifier": {
                "system": "http://ema.europa.eu/fhir/applicationIdentifierNumber",
                "value": "IE/H/0655/05/II/0015"
              },
              "type": {
                "coding": [
                  {
                    "extension": [
                      {
                        "url": "http://ema.europa.eu/fhir/extension/termVersion",
                        "valueInteger": 1
                      }
                    ],
                    "system": "https://spor.ema.europa.eu/v1/lists/100000155688",
                    "code": "100000155693",
                    "display": "Variation Type II"
                  }
                ]
              },
              "dateDateTime": "2019-02-17"
            }
          ]
        }
      },
      "request": {
        "method": "PUT",
        "url": "RegulatedAuthorization/Curocef1500mgPulver-A-HL-RegulatedAuthorization03"
      },
      "fullUrl": "https://hl7-eu.github.io/unicom-ig/branches/mpd-r4b/RegulatedAuthorization/Curocef1500mgPulver-A-HL-RegulatedAuthorization03"
    },
    {
      "resource": {
        "resourceType": "PackagedProductDefinition",
        "id": "Curocef1500mgPulver-A-HL-PackagedProductDefinition01",
        "meta": {
          "versionId": "1",
          "lastUpdated": "2022-09-01T20:20:05.83+00:00"
        },
        "identifier": [
          {
            "system": "http://ema.europa.eu/fhir/pcId",
            "value": "128827001"
          }
        ],
        "packageFor": [
          {
            "reference": "MedicinalProductDefinition/Curocef1500mgPulver-A-HL-MedicinalProductDefinition"
          }
        ],
        "containedItemQuantity": [
          {
            "value": 1,
            "system": "http://spor.ema.europa.eu/v1/lists/200000000014",
            "code": "200000002164",
            "_code": {
              "extension": [
                {
                  "url": "http://ema.europa.eu/fhir/extension/termVersion",
                  "valueInteger": 1
                }
              ]
            }
          }
        ],
        "description": "Farblose Glasampulle mit einem Brombutylkautschuk-Stopfen und Aluminium-Verschluss mit aufklappbarem Kunststoffdeckel, die 1500 mg Cefuroxim (als Cefuroxim-Natrium) Pulver enth\u00e4lt",
        "_description": {
          "extension": [
            {
              "url": "http://ema.europa.eu/fhir/extension/language",
              "valueCoding": {
                "system": "http://spor.ema.europa.eu/v1/lists/100000072057",
                "code": "100000072178",
                "display": "German"
              }
            }
          ]
        },
        "marketingStatus": [
          {
            "extension": [
              {
                "url": "http://ema.europa.eu/fhir/extension/riskOfSupplyShortage",
                "valueCoding": {
                  "system": "http://ema.europa.eu/fhir/riskOfSupplyShortage",
                  "code": "False",
                  "display": "False"
                }
              }
            ],
            "country": {
              "coding": [
                {
                  "extension": [
                    {
                      "url": "http://ema.europa.eu/fhir/extension/termVersion",
                      "valueInteger": 1
                    }
                  ],
                  "system": "https://spor.ema.europa.eu/v1/lists/100000000002",
                  "code": "100000000330",
                  "display": "Austria"
                }
              ]
            },
            "status": {
              "coding": [
                {
                  "extension": [
                    {
                      "url": "http://ema.europa.eu/fhir/extension/termVersion",
                      "valueInteger": 1
                    }
                  ],
                  "system": "https://spor.ema.europa.eu/v1/lists/100000072052",
                  "code": "100000072074",
                  "display": "Not Marketed"
                }
              ]
            },
            "dateRange": {
              "start": "1979-09-13"
            }
          }
        ],
        "package": {
          "identifier": [
            {
              "system": "http://ema.europa.eu/fhir/dataCarrierIdentifier",
              "value": "12345678905678"
            }
          ],
          "type": {
            "coding": [
              {
                "extension": [
                  {
                    "url": "http://ema.europa.eu/fhir/extension/termVersion",
                    "valueInteger": 1
                  }
                ],
                "system": "https://spor.ema.europa.eu/v1/lists/100000073346",
                "code": "100000073498",
                "display": "Box"
              }
            ]
          },
          "quantity": 1,
          "material": [
            {
              "coding": [
                {
                  "extension": [
                    {
                      "url": "http://ema.europa.eu/fhir/extension/termVersion",
                      "valueInteger": 1
                    }
                  ],
                  "system": "https://spor.ema.europa.eu/v1/lists/200000003199",
                  "code": "200000003529",
                  "display": "Cardboard"
                }
              ]
            }
          ],
          "shelfLifeStorage": [
            {
              "type": {
                "coding": [
                  {
                    "extension": [
                      {
                        "url": "http://ema.europa.eu/fhir/extension/termVersion",
                        "valueInteger": 1
                      }
                    ],
                    "system": "https://spor.ema.europa.eu/v1/lists/100000073343",
                    "code": "100000073403",
                    "display": "Shelf life of the medicinal product as packaged for sale"
                  }
                ]
              },
              "periodDuration": {
                "value": 3,
                "unit": "year",
                "system": "https://spor.ema.europa.eu/v1/lists/100000110633",
                "code": "200000003434",
                "_code": {
                  "extension": [
                    {
                      "url": "http://ema.europa.eu/fhir/extension/termVersion",
                      "valueInteger": 7
                    }
                  ]
                }
              },
              "specialPrecautionsForStorage": [
                {
                  "coding": [
                    {
                      "extension": [
                        {
                          "url": "http://ema.europa.eu/fhir/extension/termVersion",
                          "valueInteger": 1
                        }
                      ],
                      "system": "https://spor.ema.europa.eu/v1/lists/100000073344",
                      "code": "100000073410",
                      "display": "Do not store above 25 \u00b0C"
                    }
                  ]
                },
                {
                  "coding": [
                    {
                      "extension": [
                        {
                          "url": "http://ema.europa.eu/fhir/extension/termVersion",
                          "valueInteger": 1
                        }
                      ],
                      "system": "https://spor.ema.europa.eu/v1/lists/100000073344",
                      "code": "100000073421",
                      "display": "Store in the original package"
                    }
                  ]
                },
                {
                  "coding": [
                    {
                      "extension": [
                        {
                          "url": "http://ema.europa.eu/fhir/extension/termVersion",
                          "valueInteger": 1
                        }
                      ],
                      "system": "https://spor.ema.europa.eu/v1/lists/100000073344",
                      "code": "100000073426",
                      "display": "in order to protect from light"
                    }
                  ]
                }
              ]
            }
          ],
          "package": [
            {
              "type": {
                "coding": [
                  {
                    "extension": [
                      {
                        "url": "http://ema.europa.eu/fhir/extension/termVersion",
                        "valueInteger": 1
                      }
                    ],
                    "system": "https://spor.ema.europa.eu/v1/lists/100000073346",
                    "code": "100000073490",
                    "display": "Ampoule"
                  }
                ]
              },
              "quantity": 1,
              "material": [
                {
                  "coding": [
                    {
                      "extension": [
                        {
                          "url": "http://ema.europa.eu/fhir/extension/termVersion",
                          "valueInteger": 1
                        }
                      ],
                      "system": "https://spor.ema.europa.eu/v1/lists/200000003199",
                      "code": "200000003204",
                      "display": "Glass type I"
                    }
                  ]
                }
              ],
              "containedItem": [
                {
                  "item": {
                    "reference": {
                      "reference": "ManufacturedItemDefinition/Curocef1500mgPulver-A-HL-ManufacturedItemDefinition"
                    }
                  },
                  "amount": {
                    "value": 1,
                    "system": "http://spor.ema.europa.eu/v1/lists/100000110633",
                    "code": "100000110756",
                    "_code": {
                      "extension": [
                        {
                          "url": "http://ema.europa.eu/fhir/extension/termVersion",
                          "valueInteger": 1
                        }
                      ]
                    }
                  }
                }
              ]
            }
          ]
        }
      },
      "request": {
        "method": "PUT",
        "url": "PackagedProductDefinition/Curocef1500mgPulver-A-HL-PackagedProductDefinition01"
      },
      "fullUrl": "https://hl7-eu.github.io/unicom-ig/branches/mpd-r4b/PackagedProductDefinition/Curocef1500mgPulver-A-HL-PackagedProductDefinition01"
    },
    {
      "resource": {
        "resourceType": "PackagedProductDefinition",
        "id": "Curocef1500mgPulver-A-HL-PackagedProductDefinition02",
        "meta": {
          "versionId": "1",
          "lastUpdated": "2022-09-01T20:20:05.889+00:00"
        },
        "identifier": [
          {
            "system": "http://ema.europa.eu/fhir/pcId",
            "value": "128827002"
          }
        ],
        "packageFor": [
          {
            "reference": "MedicinalProductDefinition/Curocef1500mgPulver-A-HL-MedicinalProductDefinition"
          }
        ],
        "containedItemQuantity": [
          {
            "value": 5,
            "system": "http://spor.ema.europa.eu/v1/lists/200000000014",
            "code": "200000002164",
            "_code": {
              "extension": [
                {
                  "url": "http://ema.europa.eu/fhir/extension/termVersion",
                  "valueInteger": 1
                }
              ]
            }
          }
        ],
        "description": "Farblose Glasampulle mit einem Brombutylkautschuk-Stopfen und Aluminium-Verschluss mit aufklappbarem Kunststoffdeckel, die 1500 mg Cefuroxim (als Cefuroxim-Natrium) Pulver enth\u00e4lt",
        "_description": {
          "extension": [
            {
              "url": "http://ema.europa.eu/fhir/extension/language",
              "valueCoding": {
                "system": "http://spor.ema.europa.eu/v1/lists/100000072057",
                "code": "100000072178",
                "display": "German"
              }
            }
          ]
        },
        "marketingStatus": [
          {
            "extension": [
              {
                "url": "http://ema.europa.eu/fhir/extension/riskOfSupplyShortage",
                "valueCoding": {
                  "system": "http://ema.europa.eu/fhir/riskOfSupplyShortage",
                  "code": "False",
                  "display": "False"
                }
              }
            ],
            "country": {
              "coding": [
                {
                  "extension": [
                    {
                      "url": "http://ema.europa.eu/fhir/extension/termVersion",
                      "valueInteger": 1
                    }
                  ],
                  "system": "https://spor.ema.europa.eu/v1/lists/100000000002",
                  "code": "100000000330",
                  "display": "Austria"
                }
              ]
            },
            "status": {
              "coding": [
                {
                  "extension": [
                    {
                      "url": "http://ema.europa.eu/fhir/extension/termVersion",
                      "valueInteger": 1
                    }
                  ],
                  "system": "https://spor.ema.europa.eu/v1/lists/100000072052",
                  "code": "100000072083",
                  "display": "Marketed"
                }
              ]
            },
            "dateRange": {
              "start": "1979-09-13"
            }
          }
        ],
        "package": {
          "identifier": [
            {
              "system": "http://ema.europa.eu/fhir/dataCarrierIdentifier",
              "value": "12345678905678"
            }
          ],
          "type": {
            "coding": [
              {
                "extension": [
                  {
                    "url": "http://ema.europa.eu/fhir/extension/termVersion",
                    "valueInteger": 1
                  }
                ],
                "system": "https://spor.ema.europa.eu/v1/lists/100000073346",
                "code": "100000073498",
                "display": "Box"
              }
            ]
          },
          "quantity": 1,
          "material": [
            {
              "coding": [
                {
                  "extension": [
                    {
                      "url": "http://ema.europa.eu/fhir/extension/termVersion",
                      "valueInteger": 1
                    }
                  ],
                  "system": "https://spor.ema.europa.eu/v1/lists/200000003199",
                  "code": "200000003529",
                  "display": "Cardboard"
                }
              ]
            }
          ],
          "shelfLifeStorage": [
            {
              "type": {
                "coding": [
                  {
                    "extension": [
                      {
                        "url": "http://ema.europa.eu/fhir/extension/termVersion",
                        "valueInteger": 1
                      }
                    ],
                    "system": "https://spor.ema.europa.eu/v1/lists/100000073343",
                    "code": "100000073403",
                    "display": "Shelf life of the medicinal product as packaged for sale"
                  }
                ]
              },
              "periodDuration": {
                "value": 3,
                "unit": "year",
                "system": "https://spor.ema.europa.eu/v1/lists/100000110633",
                "code": "200000003434",
                "_code": {
                  "extension": [
                    {
                      "url": "http://ema.europa.eu/fhir/extension/termVersion",
                      "valueInteger": 7
                    }
                  ]
                }
              },
              "specialPrecautionsForStorage": [
                {
                  "coding": [
                    {
                      "extension": [
                        {
                          "url": "http://ema.europa.eu/fhir/extension/termVersion",
                          "valueInteger": 1
                        }
                      ],
                      "system": "https://spor.ema.europa.eu/v1/lists/100000073344",
                      "code": "100000073410",
                      "display": "Do not store above 25 \u00b0C"
                    }
                  ]
                },
                {
                  "coding": [
                    {
                      "extension": [
                        {
                          "url": "http://ema.europa.eu/fhir/extension/termVersion",
                          "valueInteger": 1
                        }
                      ],
                      "system": "https://spor.ema.europa.eu/v1/lists/100000073344",
                      "code": "100000073421",
                      "display": "Store in the original package"
                    }
                  ]
                },
                {
                  "coding": [
                    {
                      "extension": [
                        {
                          "url": "http://ema.europa.eu/fhir/extension/termVersion",
                          "valueInteger": 1
                        }
                      ],
                      "system": "https://spor.ema.europa.eu/v1/lists/100000073344",
                      "code": "100000073426",
                      "display": "in order to protect from light"
                    }
                  ]
                }
              ]
            }
          ],
          "package": [
            {
              "type": {
                "coding": [
                  {
                    "extension": [
                      {
                        "url": "http://ema.europa.eu/fhir/extension/termVersion",
                        "valueInteger": 1
                      }
                    ],
                    "system": "https://spor.ema.europa.eu/v1/lists/100000073346",
                    "code": "100000073490",
                    "display": "Ampoule"
                  }
                ]
              },
              "quantity": 1,
              "material": [
                {
                  "coding": [
                    {
                      "extension": [
                        {
                          "url": "http://ema.europa.eu/fhir/extension/termVersion",
                          "valueInteger": 1
                        }
                      ],
                      "system": "https://spor.ema.europa.eu/v1/lists/200000003199",
                      "code": "200000003204",
                      "display": "Glass type I"
                    }
                  ]
                }
              ],
              "containedItem": [
                {
                  "item": {
                    "reference": {
                      "reference": "ManufacturedItemDefinition/Curocef1500mgPulver-A-HL-ManufacturedItemDefinition"
                    }
                  },
                  "amount": {
                    "value": 5,
                    "system": "http://spor.ema.europa.eu/v1/lists/100000110633",
                    "code": "100000110756",
                    "_code": {
                      "extension": [
                        {
                          "url": "http://ema.europa.eu/fhir/extension/termVersion",
                          "valueInteger": 1
                        }
                      ]
                    }
                  }
                }
              ]
            }
          ]
        }
      },
      "request": {
        "method": "PUT",
        "url": "PackagedProductDefinition/Curocef1500mgPulver-A-HL-PackagedProductDefinition02"
      },
      "fullUrl": "https://hl7-eu.github.io/unicom-ig/branches/mpd-r4b/PackagedProductDefinition/Curocef1500mgPulver-A-HL-PackagedProductDefinition02"
    },
    {
      "resource": {
        "resourceType": "PackagedProductDefinition",
        "id": "Curocef1500mgPulver-A-HL-PackagedProductDefinition03",
        "meta": {
          "versionId": "1",
          "lastUpdated": "2022-09-01T20:20:05.911+00:00"
        },
        "identifier": [
          {
            "system": "http://ema.europa.eu/fhir/pcId",
            "value": "128827003"
          }
        ],
        "packageFor": [
          {
            "reference": "MedicinalProductDefinition/Curocef1500mgPulver-A-HL-MedicinalProductDefinition"
          }
        ],
        "containedItemQuantity": [
          {
            "value": 1,
            "system": "http://spor.ema.europa.eu/v1/lists/200000000014",
            "code": "200000002164",
            "_code": {
              "extension": [
                {
                  "url": "http://ema.europa.eu/fhir/extension/termVersion",
                  "valueInteger": 50
                }
              ]
            }
          }
        ],
        "description": "Farblose Glasampulle mit einem Brombutylkautschuk-Stopfen und Aluminium-Verschluss mit aufklappbarem Kunststoffdeckel, die 1500 mg Cefuroxim (als Cefuroxim-Natrium) Pulver enth\u00e4lt",
        "_description": {
          "extension": [
            {
              "url": "http://ema.europa.eu/fhir/extension/language",
              "valueCoding": {
                "system": "http://spor.ema.europa.eu/v1/lists/100000072057",
                "code": "100000072178",
                "display": "German"
              }
            }
          ]
        },
        "marketingStatus": [
          {
            "extension": [
              {
                "url": "http://ema.europa.eu/fhir/extension/riskOfSupplyShortage",
                "valueCoding": {
                  "system": "http://ema.europa.eu/fhir/riskOfSupplyShortage",
                  "code": "False",
                  "display": "False"
                }
              }
            ],
            "country": {
              "coding": [
                {
                  "extension": [
                    {
                      "url": "http://ema.europa.eu/fhir/extension/termVersion",
                      "valueInteger": 1
                    }
                  ],
                  "system": "https://spor.ema.europa.eu/v1/lists/100000000002",
                  "code": "100000000330",
                  "display": "Austria"
                }
              ]
            },
            "status": {
              "coding": [
                {
                  "extension": [
                    {
                      "url": "http://ema.europa.eu/fhir/extension/termVersion",
                      "valueInteger": 1
                    }
                  ],
                  "system": "https://spor.ema.europa.eu/v1/lists/100000072052",
                  "code": "100000072074",
                  "display": "Not Marketed"
                }
              ]
            },
            "dateRange": {
              "start": "1979-09-13"
            }
          }
        ],
        "package": {
          "identifier": [
            {
              "system": "http://ema.europa.eu/fhir/dataCarrierIdentifier",
              "value": "12345678905678"
            }
          ],
          "type": {
            "coding": [
              {
                "extension": [
                  {
                    "url": "http://ema.europa.eu/fhir/extension/termVersion",
                    "valueInteger": 1
                  }
                ],
                "system": "https://spor.ema.europa.eu/v1/lists/100000073346",
                "code": "100000073498",
                "display": "Box"
              }
            ]
          },
          "quantity": 1,
          "material": [
            {
              "coding": [
                {
                  "extension": [
                    {
                      "url": "http://ema.europa.eu/fhir/extension/termVersion",
                      "valueInteger": 1
                    }
                  ],
                  "system": "https://spor.ema.europa.eu/v1/lists/200000003199",
                  "code": "200000003529",
                  "display": "Cardboard"
                }
              ]
            }
          ],
          "shelfLifeStorage": [
            {
              "type": {
                "coding": [
                  {
                    "extension": [
                      {
                        "url": "http://ema.europa.eu/fhir/extension/termVersion",
                        "valueInteger": 1
                      }
                    ],
                    "system": "https://spor.ema.europa.eu/v1/lists/100000073343",
                    "code": "100000073403",
                    "display": "Shelf life of the medicinal product as packaged for sale"
                  }
                ]
              },
              "periodDuration": {
                "value": 3,
                "unit": "year",
                "system": "https://spor.ema.europa.eu/v1/lists/100000110633",
                "code": "200000003434",
                "_code": {
                  "extension": [
                    {
                      "url": "http://ema.europa.eu/fhir/extension/termVersion",
                      "valueInteger": 7
                    }
                  ]
                }
              },
              "specialPrecautionsForStorage": [
                {
                  "coding": [
                    {
                      "extension": [
                        {
                          "url": "http://ema.europa.eu/fhir/extension/termVersion",
                          "valueInteger": 1
                        }
                      ],
                      "system": "https://spor.ema.europa.eu/v1/lists/100000073344",
                      "code": "100000073410",
                      "display": "Do not store above 25 \u00b0C"
                    }
                  ]
                },
                {
                  "coding": [
                    {
                      "extension": [
                        {
                          "url": "http://ema.europa.eu/fhir/extension/termVersion",
                          "valueInteger": 1
                        }
                      ],
                      "system": "https://spor.ema.europa.eu/v1/lists/100000073344",
                      "code": "100000073421",
                      "display": "Store in the original package"
                    }
                  ]
                },
                {
                  "coding": [
                    {
                      "extension": [
                        {
                          "url": "http://ema.europa.eu/fhir/extension/termVersion",
                          "valueInteger": 1
                        }
                      ],
                      "system": "https://spor.ema.europa.eu/v1/lists/100000073344",
                      "code": "100000073426",
                      "display": "in order to protect from light"
                    }
                  ]
                }
              ]
            }
          ],
          "package": [
            {
              "type": {
                "coding": [
                  {
                    "extension": [
                      {
                        "url": "http://ema.europa.eu/fhir/extension/termVersion",
                        "valueInteger": 1
                      }
                    ],
                    "system": "https://spor.ema.europa.eu/v1/lists/100000073346",
                    "code": "100000073490",
                    "display": "Ampoule"
                  }
                ]
              },
              "quantity": 1,
              "material": [
                {
                  "coding": [
                    {
                      "extension": [
                        {
                          "url": "http://ema.europa.eu/fhir/extension/termVersion",
                          "valueInteger": 1
                        }
                      ],
                      "system": "https://spor.ema.europa.eu/v1/lists/200000003199",
                      "code": "200000003204",
                      "display": "Glass type I"
                    }
                  ]
                }
              ],
              "containedItem": [
                {
                  "item": {
                    "reference": {
                      "reference": "ManufacturedItemDefinition/Curocef1500mgPulver-A-HL-ManufacturedItemDefinition"
                    }
                  },
                  "amount": {
                    "value": 50,
                    "system": "http://spor.ema.europa.eu/v1/lists/100000110633",
                    "code": "100000110756",
                    "_code": {
                      "extension": [
                        {
                          "url": "http://ema.europa.eu/fhir/extension/termVersion",
                          "valueInteger": 1
                        }
                      ]
                    }
                  }
                }
              ]
            }
          ]
        }
      },
      "request": {
        "method": "PUT",
        "url": "PackagedProductDefinition/Curocef1500mgPulver-A-HL-PackagedProductDefinition03"
      },
      "fullUrl": "https://hl7-eu.github.io/unicom-ig/branches/mpd-r4b/PackagedProductDefinition/Curocef1500mgPulver-A-HL-PackagedProductDefinition03"
    },
    {
      "resource": {
        "resourceType": "ManufacturedItemDefinition",
        "id": "Curocef1500mgPulver-A-HL-ManufacturedItemDefinition",
        "meta": {
          "versionId": "1",
          "lastUpdated": "2022-09-01T20:20:06.053+00:00"
        },
        "extension": [
          {
            "url": "http://ema.europa.eu/fhir/extension/subject",
            "valueReference": {
              "reference": "MedicinalProductDefinition/Curocef1500mgPulver-A-HL-MedicinalProductDefinition"
            }
          }
        ],
        "status": "active",
        "manufacturedDoseForm": {
          "coding": [
            {
              "extension": [
                {
                  "url": "http://ema.europa.eu/fhir/extension/termVersion",
                  "valueInteger": 1
                }
              ],
              "system": "https://spor.ema.europa.eu/v1/lists/200000000004",
              "code": "100000116186",
              "display": "Powder for solution for injection/infusion"
            }
          ]
        },
        "unitOfPresentation": {
          "coding": [
            {
              "extension": [
                {
                  "url": "http://ema.europa.eu/fhir/extension/termVersion",
                  "valueInteger": 1
                }
              ],
              "system": "https://spor.ema.europa.eu/v1/lists/200000000014",
              "code": "200000002164",
              "display": "Ampoule"
            }
          ]
        }
      },
      "request": {
        "method": "PUT",
        "url": "ManufacturedItemDefinition/Curocef1500mgPulver-A-HL-ManufacturedItemDefinition"
      },
      "fullUrl": "https://hl7-eu.github.io/unicom-ig/branches/mpd-r4b/ManufacturedItemDefinition/Curocef1500mgPulver-A-HL-ManufacturedItemDefinition"
    }
  ]
}