{
  "id": "DiklofenakOrifarm50Enterotablett-SE-PLC-MedicinalProductDef-BBDL",
  "type": "transaction",
  "resourceType": "Bundle",
  "entry": [
    {
      "resource": {
        "resourceType": "MedicinalProductDefinition",
        "id": "DiklofenakOrifarm50Enterotablett-SE-PLC-MedicinalProductDef",
        "meta": {
          "versionId": "1",
          "lastUpdated": "2022-06-30T09:46:21.241+00:00"
        },
        "extension": [
          {
            "url": "http://ema.europa.eu/fhir/extension/authorisedDoseForm",
            "valueCoding": {
              "system": "http://spor.ema.europa.eu/v1/lists/200000000004~200000000006~200000000007~200000000008",
              "code": "100000073667",
              "display": "Gastro-resistant tablet"
            }
          }
        ],
        "identifier": [
          {
            "system": "http://ema.europa.eu/fhir/mpId",
            "value": "SE-100002342-00019695"
          },
          {
            "system": "http://ema.europa.eu/fhir/eurdId",
            "value": "1048"
          }
        ],
        "domain": {
          "coding": [
            {
              "system": "http://spor.ema.europa.eu/v1/lists/100000000004",
              "code": "100000000012",
              "display": "Human use"
            }
          ]
        },
        "status": {
          "coding": [
            {
              "system": "http://spor.ema.europa.eu/v1/lists/200000005003",
              "code": "200000005004",
              "display": "Current"
            }
          ]
        },
        "indication": "Diklofenak Orifarm 50 mg enterotablett \u00e4r indicerat f\u00f6r behandling av nedanst\u00e5ende och \u00e4r avsedd f\u00f6r vuxna och barn som v\u00e4ger mer \u00e4n 50 kg. Reumatoid artrit. Juvenil reumatoid artrit. Artros. Mb. Bechterew. Dysmenorr\u00e9 utan organisk orsak.",
        "legalStatusOfSupply": {
          "coding": [
            {
              "system": "http://spor.ema.europa.eu/v1/lists/100000072051",
              "code": "100000072084",
              "display": "Medicinal product subject to medical prescription"
            }
          ]
        },
        "classification": [
          {
            "coding": [
              {
                "system": "http://spor.ema.europa.eu/v1/lists/100000093533",
                "code": "100000096906",
                "display": "M01AB05"
              }
            ]
          }
        ],
        "name": [
          {
            "productName": "Diklofenak Orifarm 50 mg enterotablett",
            "namePart": [
              {
                "part": "Diklofenak Orifarm",
                "type": {
                  "coding": [
                    {
                      "system": "http://spor.ema.europa.eu/v1/lists/220000000000",
                      "code": "220000000003",
                      "display": "Scientific name part"
                    }
                  ]
                }
              },
              {
                "part": "50 mg",
                "type": {
                  "coding": [
                    {
                      "system": "http://spor.ema.europa.eu/v1/lists/220000000000",
                      "code": "220000000004",
                      "display": "Strength part"
                    }
                  ]
                }
              },
              {
                "part": "enterotablett",
                "type": {
                  "coding": [
                    {
                      "system": "http://spor.ema.europa.eu/v1/lists/220000000000",
                      "code": "220000000005",
                      "display": "Pharmaceutical dose form part"
                    }
                  ]
                }
              }
            ],
            "countryLanguage": [
              {
                "country": {
                  "coding": [
                    {
                      "system": "http://spor.ema.europa.eu/v1/lists/100000000002",
                      "code": "100000000535",
                      "display": "Sweden"
                    }
                  ]
                },
                "language": {
                  "coding": [
                    {
                      "system": "http://spor.ema.europa.eu/v1/lists/100000072057",
                      "code": "100000072288",
                      "display": "Swedish"
                    }
                  ]
                }
              }
            ]
          }
        ]
      },
      "request": {
        "method": "PUT",
        "url": "MedicinalProductDefinition/DiklofenakOrifarm50Enterotablett-SE-PLC-MedicinalProductDef"
      },
      "fullUrl": "https://hl7-eu.github.io/unicom-ig/branches/mpd-r4b/MedicinalProductDefinition/DiklofenakOrifarm50Enterotablett-SE-PLC-MedicinalProductDef"
    },
    {
      "resource": {
        "resourceType": "RegulatedAuthorization",
        "id": "DiklofenakOrifarm50Enterotablett-SE-PLC-RegulatedAuthorization",
        "meta": {
          "versionId": "1",
          "lastUpdated": "2022-06-30T09:46:21.29+00:00"
        },
        "identifier": [
          {
            "system": "http://ema.europa.eu/fhir/MarketingAuthorizationNumber",
            "value": "19695"
          }
        ],
        "subject": [
          {
            "reference": "MedicinalProductDefinition/DiklofenakOrifarm50Enterotablett-SE-PLC-MedicinalProductDef"
          }
        ],
        "type": {
          "coding": [
            {
              "system": "http://spor.ema.europa.eu/v1/lists/220000000060",
              "code": "220000000061",
              "display": "Marketing Authorisation"
            }
          ]
        },
        "region": [
          {
            "coding": [
              {
                "system": "http://spor.ema.europa.eu/v1/lists/100000000002",
                "code": "100000000535",
                "display": "Sweden"
              }
            ]
          }
        ],
        "status": {
          "coding": [
            {
              "system": "http://spor.ema.europa.eu/v1/lists/100000072049",
              "code": "100000072099",
              "display": "Valid"
            }
          ]
        },
        "statusDate": "2005-05-27",
        "holder": {
          "identifier": {
            "system": "https://spor.ema.europa.eu/v1/locations",
            "value": "LOC-100005206"
          },
          "display": "Orifarm Generics A/S"
        },
        "case": {
          "type": {
            "coding": [
              {
                "system": "http://ema.europa.eu/fhir/authorisationDateType",
                "code": "dateOfFirstAuthorisation",
                "display": "First Authorisation"
              }
            ]
          },
          "dateDateTime": "2005-05-27"
        }
      },
      "request": {
        "method": "PUT",
        "url": "RegulatedAuthorization/DiklofenakOrifarm50Enterotablett-SE-PLC-RegulatedAuthorization"
      },
      "fullUrl": "https://hl7-eu.github.io/unicom-ig/branches/mpd-r4b/RegulatedAuthorization/DiklofenakOrifarm50Enterotablett-SE-PLC-RegulatedAuthorization"
    },
    {
      "resource": {
        "resourceType": "PackagedProductDefinition",
        "id": "DiklofenakOrifarm50Enterotablett-SE-PLC-PackageProductDef01",
        "meta": {
          "versionId": "1",
          "lastUpdated": "2022-06-30T09:46:21.329+00:00"
        },
        "extension": [
          {
            "url": "http://ema.europa.eu/fhir/extension/containedItemQuantity",
            "valueQuantity": {
              "value": 100,
              "unit": "Tablet",
              "system": "http://spor.ema.europa.eu/v1/lists/200000000014",
              "code": "200000002152"
            }
          }
        ],
        "packageFor": [
          {
            "reference": "MedicinalProductDefinition/DiklofenakOrifarm50Enterotablett-SE-PLC-MedicinalProductDef"
          }
        ],
        "description": "Blister, 100 tabletter",
        "_description": {
          "extension": [
            {
              "url": "http://ema.europa.eu/fhir/extension/language",
              "valueCoding": {
                "system": "http://spor.ema.europa.eu/v1/lists/100000072057",
                "code": "100000072288",
                "display": "Swedish"
              }
            }
          ]
        },
        "marketingStatus": [
          {
            "country": {
              "coding": [
                {
                  "system": "http://spor.ema.europa.eu/v1/lists/100000000002",
                  "code": "100000000535",
                  "display": "Sweden"
                }
              ]
            },
            "status": {
              "coding": [
                {
                  "system": "http://spor.ema.europa.eu/v1/lists/100000072052",
                  "code": "100000072083",
                  "display": "Marketed"
                }
              ]
            }
          }
        ],
        "package": {
          "type": {
            "coding": [
              {
                "system": "https://spor.ema.europa.eu/v1/lists/100000073346",
                "code": "100000073498",
                "display": "Box"
              }
            ]
          },
          "quantity": 1,
          "material": [
            {
              "coding": [
                {
                  "system": "https://spor.ema.europa.eu/v1/lists/200000003199",
                  "code": "200000003529",
                  "display": "Cardboard"
                }
              ]
            }
          ],
          "package": [
            {
              "type": {
                "coding": [
                  {
                    "system": "https://spor.ema.europa.eu/v1/lists/100000073346",
                    "code": "100000073496",
                    "display": "Blister"
                  }
                ]
              },
              "quantity": 10,
              "material": [
                {
                  "coding": [
                    {
                      "system": "https://spor.ema.europa.eu/v1/lists/200000003199",
                      "code": "200000003222",
                      "display": "PolyVinyl Chloride"
                    }
                  ]
                },
                {
                  "coding": [
                    {
                      "system": "https://spor.ema.europa.eu/v1/lists/200000003199",
                      "code": "200000003225",
                      "display": "PolyVinylidene Chloride"
                    }
                  ]
                },
                {
                  "coding": [
                    {
                      "system": "https://spor.ema.europa.eu/v1/lists/200000003199",
                      "code": "200000003200",
                      "display": "Aluminium"
                    }
                  ]
                }
              ],
              "containedItem": [
                {
                  "item": {
                    "reference": {
                      "reference": "ManufacturedItemDefinition/DiklofenakOrifarm50Enterotablett-SE-PLC-ManufacturedItemDef"
                    }
                  },
                  "amount": {
                    "value": 100,
                    "unit": "Tablet",
                    "system": "http://spor.ema.europa.eu/v1/lists/100000110633~200000000014",
                    "code": "200000002152"
                  }
                }
              ]
            }
          ]
        }
      },
      "request": {
        "method": "PUT",
        "url": "PackagedProductDefinition/DiklofenakOrifarm50Enterotablett-SE-PLC-PackageProductDef01"
      },
      "fullUrl": "https://hl7-eu.github.io/unicom-ig/branches/mpd-r4b/PackagedProductDefinition/DiklofenakOrifarm50Enterotablett-SE-PLC-PackageProductDef01"
    },
    {
      "resource": {
        "resourceType": "PackagedProductDefinition",
        "id": "DiklofenakOrifarm50Enterotablett-SE-PLC-PackageProductDef02",
        "meta": {
          "versionId": "1",
          "lastUpdated": "2022-06-30T09:46:21.339+00:00"
        },
        "extension": [
          {
            "url": "http://ema.europa.eu/fhir/extension/containedItemQuantity",
            "valueQuantity": {
              "value": 20,
              "unit": "Tablet",
              "system": "http://spor.ema.europa.eu/v1/lists/200000000014",
              "code": "200000002152"
            }
          }
        ],
        "packageFor": [
          {
            "reference": "MedicinalProductDefinition/DiklofenakOrifarm50Enterotablett-SE-PLC-MedicinalProductDef"
          }
        ],
        "description": "Blister, 20 tablett",
        "_description": {
          "extension": [
            {
              "url": "http://ema.europa.eu/fhir/extension/language",
              "valueCoding": {
                "system": "http://spor.ema.europa.eu/v1/lists/100000072057",
                "code": "100000072288",
                "display": "Swedish"
              }
            }
          ]
        },
        "marketingStatus": [
          {
            "country": {
              "coding": [
                {
                  "system": "http://spor.ema.europa.eu/v1/lists/100000000002",
                  "code": "100000000535",
                  "display": "Sweden"
                }
              ]
            },
            "status": {
              "coding": [
                {
                  "system": "http://spor.ema.europa.eu/v1/lists/100000072052",
                  "code": "100000072083",
                  "display": "Marketed"
                }
              ]
            }
          }
        ],
        "package": {
          "type": {
            "coding": [
              {
                "system": "https://spor.ema.europa.eu/v1/lists/100000073346",
                "code": "100000073498",
                "display": "Box"
              }
            ]
          },
          "quantity": 1,
          "material": [
            {
              "coding": [
                {
                  "system": "https://spor.ema.europa.eu/v1/lists/200000003199",
                  "code": "200000003529",
                  "display": "Cardboard"
                }
              ]
            }
          ],
          "package": [
            {
              "type": {
                "coding": [
                  {
                    "system": "https://spor.ema.europa.eu/v1/lists/100000073346",
                    "code": "100000073496",
                    "display": "Blister"
                  }
                ]
              },
              "quantity": 2,
              "material": [
                {
                  "coding": [
                    {
                      "system": "https://spor.ema.europa.eu/v1/lists/200000003199",
                      "code": "200000003222",
                      "display": "PolyVinyl Chloride"
                    }
                  ]
                },
                {
                  "coding": [
                    {
                      "system": "https://spor.ema.europa.eu/v1/lists/200000003199",
                      "code": "200000003225",
                      "display": "PolyVinylidene Chloride"
                    }
                  ]
                },
                {
                  "coding": [
                    {
                      "system": "https://spor.ema.europa.eu/v1/lists/200000003199",
                      "code": "200000003200",
                      "display": "Aluminium"
                    }
                  ]
                }
              ],
              "containedItem": [
                {
                  "item": {
                    "reference": {
                      "reference": "ManufacturedItemDefinition/DiklofenakOrifarm50Enterotablett-SE-PLC-ManufacturedItemDef"
                    }
                  },
                  "amount": {
                    "value": 20,
                    "unit": "Tablet",
                    "system": "http://spor.ema.europa.eu/v1/lists/100000110633~200000000014",
                    "code": "200000002152"
                  }
                }
              ]
            }
          ]
        }
      },
      "request": {
        "method": "PUT",
        "url": "PackagedProductDefinition/DiklofenakOrifarm50Enterotablett-SE-PLC-PackageProductDef02"
      },
      "fullUrl": "https://hl7-eu.github.io/unicom-ig/branches/mpd-r4b/PackagedProductDefinition/DiklofenakOrifarm50Enterotablett-SE-PLC-PackageProductDef02"
    },
    {
      "resource": {
        "resourceType": "PackagedProductDefinition",
        "id": "DiklofenakOrifarm50Enterotablett-SE-PLC-PackageProductDef03",
        "meta": {
          "versionId": "1",
          "lastUpdated": "2022-06-30T09:46:21.348+00:00"
        },
        "extension": [
          {
            "url": "http://ema.europa.eu/fhir/extension/containedItemQuantity",
            "valueQuantity": {
              "value": 30,
              "unit": "Tablet",
              "system": "http://spor.ema.europa.eu/v1/lists/200000000014",
              "code": "200000002152"
            }
          }
        ],
        "packageFor": [
          {
            "reference": "MedicinalProductDefinition/DiklofenakOrifarm50Enterotablett-SE-PLC-MedicinalProductDef"
          }
        ],
        "description": "Blister, 30 tablett",
        "_description": {
          "extension": [
            {
              "url": "http://ema.europa.eu/fhir/extension/language",
              "valueCoding": {
                "system": "http://spor.ema.europa.eu/v1/lists/100000072057",
                "code": "100000072288",
                "display": "Swedish"
              }
            }
          ]
        },
        "marketingStatus": [
          {
            "country": {
              "coding": [
                {
                  "system": "http://spor.ema.europa.eu/v1/lists/100000000002",
                  "code": "100000000535",
                  "display": "Sweden"
                }
              ]
            },
            "status": {
              "coding": [
                {
                  "system": "http://spor.ema.europa.eu/v1/lists/100000072052",
                  "code": "100000072083",
                  "display": "Marketed"
                }
              ]
            }
          }
        ],
        "package": {
          "type": {
            "coding": [
              {
                "system": "https://spor.ema.europa.eu/v1/lists/100000073346",
                "code": "100000073498",
                "display": "Box"
              }
            ]
          },
          "quantity": 1,
          "material": [
            {
              "coding": [
                {
                  "system": "https://spor.ema.europa.eu/v1/lists/200000003199",
                  "code": "200000003529",
                  "display": "Cardboard"
                }
              ]
            }
          ],
          "package": [
            {
              "type": {
                "coding": [
                  {
                    "system": "https://spor.ema.europa.eu/v1/lists/100000073346",
                    "code": "100000073496",
                    "display": "Blister"
                  }
                ]
              },
              "quantity": 3,
              "material": [
                {
                  "coding": [
                    {
                      "system": "https://spor.ema.europa.eu/v1/lists/200000003199",
                      "code": "200000003222",
                      "display": "PolyVinyl Chloride"
                    }
                  ]
                },
                {
                  "coding": [
                    {
                      "system": "https://spor.ema.europa.eu/v1/lists/200000003199",
                      "code": "200000003225",
                      "display": "PolyVinylidene Chloride"
                    }
                  ]
                },
                {
                  "coding": [
                    {
                      "system": "https://spor.ema.europa.eu/v1/lists/200000003199",
                      "code": "200000003200",
                      "display": "Aluminium"
                    }
                  ]
                }
              ],
              "containedItem": [
                {
                  "item": {
                    "reference": {
                      "reference": "ManufacturedItemDefinition/DiklofenakOrifarm50Enterotablett-SE-PLC-ManufacturedItemDef"
                    }
                  },
                  "amount": {
                    "value": 30,
                    "unit": "Tablet",
                    "system": "http://spor.ema.europa.eu/v1/lists/100000110633~200000000014",
                    "code": "200000002152"
                  }
                }
              ]
            }
          ]
        }
      },
      "request": {
        "method": "PUT",
        "url": "PackagedProductDefinition/DiklofenakOrifarm50Enterotablett-SE-PLC-PackageProductDef03"
      },
      "fullUrl": "https://hl7-eu.github.io/unicom-ig/branches/mpd-r4b/PackagedProductDefinition/DiklofenakOrifarm50Enterotablett-SE-PLC-PackageProductDef03"
    },
    {
      "resource": {
        "resourceType": "PackagedProductDefinition",
        "id": "DiklofenakOrifarm50Enterotablett-SE-PLC-PackageProductDef04",
        "meta": {
          "versionId": "1",
          "lastUpdated": "2022-06-30T09:46:21.358+00:00"
        },
        "extension": [
          {
            "url": "http://ema.europa.eu/fhir/extension/containedItemQuantity",
            "valueQuantity": {
              "value": 50,
              "unit": "Tablet",
              "system": "http://spor.ema.europa.eu/v1/lists/200000000014",
              "code": "200000002152"
            }
          }
        ],
        "packageFor": [
          {
            "reference": "MedicinalProductDefinition/DiklofenakOrifarm50Enterotablett-SE-PLC-MedicinalProductDef"
          }
        ],
        "description": "Blister, 50 tablett",
        "_description": {
          "extension": [
            {
              "url": "http://ema.europa.eu/fhir/extension/language",
              "valueCoding": {
                "system": "http://spor.ema.europa.eu/v1/lists/100000072057",
                "code": "100000072288",
                "display": "Swedish"
              }
            }
          ]
        },
        "marketingStatus": [
          {
            "country": {
              "coding": [
                {
                  "system": "http://spor.ema.europa.eu/v1/lists/100000000002",
                  "code": "100000000535",
                  "display": "Sweden"
                }
              ]
            },
            "status": {
              "coding": [
                {
                  "system": "http://spor.ema.europa.eu/v1/lists/100000072052",
                  "code": "100000072083",
                  "display": "Marketed"
                }
              ]
            }
          }
        ],
        "package": {
          "type": {
            "coding": [
              {
                "system": "https://spor.ema.europa.eu/v1/lists/100000073346",
                "code": "100000073498",
                "display": "Box"
              }
            ]
          },
          "quantity": 1,
          "material": [
            {
              "coding": [
                {
                  "system": "https://spor.ema.europa.eu/v1/lists/200000003199",
                  "code": "200000003529",
                  "display": "Cardboard"
                }
              ]
            }
          ],
          "package": [
            {
              "type": {
                "coding": [
                  {
                    "system": "https://spor.ema.europa.eu/v1/lists/100000073346",
                    "code": "100000073496",
                    "display": "Blister"
                  }
                ]
              },
              "quantity": 5,
              "material": [
                {
                  "coding": [
                    {
                      "system": "https://spor.ema.europa.eu/v1/lists/200000003199",
                      "code": "200000003222",
                      "display": "PolyVinyl Chloride"
                    }
                  ]
                },
                {
                  "coding": [
                    {
                      "system": "https://spor.ema.europa.eu/v1/lists/200000003199",
                      "code": "200000003225",
                      "display": "PolyVinylidene Chloride"
                    }
                  ]
                },
                {
                  "coding": [
                    {
                      "system": "https://spor.ema.europa.eu/v1/lists/200000003199",
                      "code": "200000003200",
                      "display": "Aluminium"
                    }
                  ]
                }
              ],
              "containedItem": [
                {
                  "item": {
                    "reference": {
                      "reference": "ManufacturedItemDefinition/DiklofenakOrifarm50Enterotablett-SE-PLC-ManufacturedItemDef"
                    }
                  },
                  "amount": {
                    "value": 50,
                    "unit": "Tablet",
                    "system": "http://spor.ema.europa.eu/v1/lists/100000110633~200000000014",
                    "code": "200000002152"
                  }
                }
              ]
            }
          ]
        }
      },
      "request": {
        "method": "PUT",
        "url": "PackagedProductDefinition/DiklofenakOrifarm50Enterotablett-SE-PLC-PackageProductDef04"
      },
      "fullUrl": "https://hl7-eu.github.io/unicom-ig/branches/mpd-r4b/PackagedProductDefinition/DiklofenakOrifarm50Enterotablett-SE-PLC-PackageProductDef04"
    },
    {
      "resource": {
        "resourceType": "ManufacturedItemDefinition",
        "id": "DiklofenakOrifarm50Enterotablett-SE-PLC-ManufacturedItemDef",
        "meta": {
          "versionId": "1",
          "lastUpdated": "2022-06-30T09:46:21.367+00:00"
        },
        "status": "active",
        "manufacturedDoseForm": {
          "coding": [
            {
              "system": "http://spor.ema.europa.eu/v1/lists/200000000004",
              "code": "100000073667",
              "display": "Gastro-resistant tablet"
            }
          ]
        },
        "unitOfPresentation": {
          "coding": [
            {
              "system": "http://spor.ema.europa.eu/v1/lists/200000000014",
              "code": "200000002152",
              "display": "Tablet"
            }
          ]
        }
      },
      "request": {
        "method": "PUT",
        "url": "ManufacturedItemDefinition/DiklofenakOrifarm50Enterotablett-SE-PLC-ManufacturedItemDef"
      },
      "fullUrl": "https://hl7-eu.github.io/unicom-ig/branches/mpd-r4b/ManufacturedItemDefinition/DiklofenakOrifarm50Enterotablett-SE-PLC-ManufacturedItemDef"
    },
    {
      "resource": {
        "resourceType": "Ingredient",
        "id": "DiklofenakOrifarm50Enterotablett-SE-PLC-Ingredient",
        "meta": {
          "versionId": "1",
          "lastUpdated": "2022-06-30T09:46:21.378+00:00"
        },
        "status": "active",
        "for": [
          {
            "reference": "MedicinalProductDefinition/DiklofenakOrifarm50Enterotablett-SE-PLC-MedicinalProductDef"
          },
          {
            "reference": "ManufacturedItemDefinition/DiklofenakOrifarm50Enterotablett-SE-PLC-ManufacturedItemDef"
          },
          {
            "reference": "AdministrableProductDefinition/DiklofenakOrifarm50Enterotablett-SE-PLC-AdministrableProductDef"
          }
        ],
        "role": {
          "coding": [
            {
              "system": "https://spor.ema.europa.eu/v1/lists/100000072050",
              "code": "100000072072",
              "display": "Active"
            }
          ]
        },
        "substance": {
          "code": {
            "concept": {
              "coding": [
                {
                  "system": "https://spor.ema.europa.eu/v2/SubstanceDefinition",
                  "code": "100000092272",
                  "display": "Diclofenac sodium"
                }
              ]
            }
          },
          "strength": [
            {
              "presentationRatio": {
                "numerator": {
                  "value": 50,
                  "_comparator": {
                    "extension": [
                      {
                        "url": "http://ema.europa.eu/fhir/extension/comparator",
                        "valueCoding": {
                          "system": "https://spor.ema.europa.eu/v1/lists/100000000008",
                          "code": "100000000049",
                          "display": "equal to"
                        }
                      }
                    ]
                  },
                  "unit": "milligram(s)",
                  "system": "https://spor.ema.europa.eu/v1/lists/100000110633",
                  "code": "100000110655"
                },
                "denominator": {
                  "value": 1,
                  "unit": "tablet",
                  "system": "https://spor.ema.europa.eu/v1/lists/200000000014",
                  "code": "200000002152"
                }
              },
              "referenceStrength": [
                {
                  "substance": {
                    "concept": {
                      "coding": [
                        {
                          "system": "https://spor.ema.europa.eu/v2/SubstanceDefinition",
                          "code": "100000092798",
                          "display": "diclofenac"
                        }
                      ]
                    }
                  },
                  "strengthRatio": {
                    "numerator": {
                      "value": 41.4,
                      "_comparator": {
                        "extension": [
                          {
                            "url": "http://ema.europa.eu/fhir/extension/comparator",
                            "valueCoding": {
                              "system": "https://spor.ema.europa.eu/v1/lists/100000000008",
                              "code": "100000000049",
                              "display": "equal to"
                            }
                          }
                        ]
                      },
                      "unit": "milligram(s)",
                      "system": "https://spor.ema.europa.eu/v1/lists/100000110633",
                      "code": "100000110655"
                    },
                    "denominator": {
                      "value": 1,
                      "unit": "tablet",
                      "system": "https://spor.ema.europa.eu/v1/lists/200000000014",
                      "code": "200000002152"
                    }
                  }
                }
              ]
            }
          ]
        }
      },
      "request": {
        "method": "PUT",
        "url": "Ingredient/DiklofenakOrifarm50Enterotablett-SE-PLC-Ingredient"
      },
      "fullUrl": "https://hl7-eu.github.io/unicom-ig/branches/mpd-r4b/Ingredient/DiklofenakOrifarm50Enterotablett-SE-PLC-Ingredient"
    }
  ]
}