{
  "id": "Elvanse-50mg-Capsule-SE-AJ-MedicinalProductDefinition-BBDL",
  "type": "transaction",
  "resourceType": "Bundle",
  "entry": [
    {
      "resource": {
        "resourceType": "MedicinalProductDefinition",
        "id": "Elvanse-50mg-Capsule-SE-AJ-MedicinalProductDefinition",
        "meta": {
          "versionId": "1",
          "lastUpdated": "2022-08-09T14:17:27.147+00:00"
        },
        "extension": [
          {
            "url": "http://ema.europa.eu/fhir/extension/authorisedDoseForm",
            "valueCoding": {
              "system": "http://spor.ema.europa.eu/v1/lists/200000000004",
              "code": "100000073375",
              "display": "Capsule, hard"
            }
          }
        ],
        "identifier": [
          {
            "system": "http://ema.europa.eu/fhir/mpId",
            "value": "SE-100000607-00047383"
          },
          {
            "system": "http://ema.europa.eu/fhir/eurdId",
            "value": "10289"
          }
        ],
        "domain": {
          "coding": [
            {
              "system": "http://spor.ema.europa.eu/v1/lists/100000000004",
              "code": "100000000012",
              "display": "Human use"
            }
          ]
        },
        "status": {
          "coding": [
            {
              "system": "http://spor.ema.europa.eu/v1/lists/200000005003",
              "code": "200000005004",
              "display": "Current"
            }
          ]
        },
        "indication": "Elvanse \u00e4r indicerat som en del i ett omfattande behandlingsprogram anpassat f\u00f6r ADHD (Attention Deficit Hyperactivity Disorder, Uppm\u00e4rksamhetsst\u00f6rning/Hyperaktivitet)  hos barn i \u00e5ldern 6 \u00e5r och \u00e4ldre, n\u00e4r svar p\u00e5 tidigare behandling med metylfenidat bed\u00f6ms vara kliniskt otillr\u00e4ckligt. Behandlingen ska ske under \u00f6verinseende av specialist p\u00e5 beteendest\u00f6rningar hos barn och/eller ungdomar.  Diagnos ska st\u00e4llas enligt kriterierna i DSM eller riktlinjerna i ICD och ska grundas p\u00e5 fullst\u00e4ndig anamnes och utv\u00e4rdering av patienten.  Diagnos kan inte st\u00e4llas enbart p\u00e5 n\u00e4rvaro av ett eller flera symtom. Den specifika etiologin f\u00f6r detta syndrom \u00e4r ok\u00e4nd, och det finns inget enstaka diagnostiskt test.  Adekvat diagnos kr\u00e4ver anv\u00e4ndning av s\u00e5v\u00e4l medicinska som specialiserade psykologiska, pedagogiska och sociala resurser.  Ett omfattande behandlingsprogram karakt\u00e4riseras av psykologiska, pedagogiska och sociala \u00e5tg\u00e4rder s\u00e5v\u00e4l som farmakoterapi och har som m\u00e5ls\u00e4ttning att  stabilisera barn med ett beteendesyndrom karakt\u00e4riserat av symtom som kan inkludera kronisk anamnes av kort uppm\u00e4rksamhetsperiod, distraherbarhet, emotionell labilitet,  impulsivitet, m\u00e5ttlig till sv\u00e5r hyperaktivitet, mindre uttalade neurologiska tecken och onormalt EEG. Syndromet kan f\u00f6rekomma b\u00e5de med och utan inl\u00e4rningssv\u00e5righeter. Behandling med Elvanse \u00e4r inte indicerat f\u00f6r alla barn med ADHD och beslutet att anv\u00e4nda l\u00e4kemedlet m\u00e5ste grundas p\u00e5 en mycket noggrann bed\u00f6mning av  sv\u00e5righetsgrad och kronicitet av barnets symtom i f\u00f6rh\u00e5llande till barnets \u00e5lder och risk f\u00f6r missbruk, felanv\u00e4ndning eller avvikande anv\u00e4ndning. Tillg\u00e5ng till l\u00e4mplig undervisningsform \u00e4r v\u00e4sentlig, och psykosocial intervention \u00e4r i allm\u00e4nhet n\u00f6dv\u00e4ndigt.  Anv\u00e4ndning av Elvanse ska alltid ske p\u00e5 detta s\u00e4tt enligt godk\u00e4nd indikation.",
        "legalStatusOfSupply": {
          "coding": [
            {
              "system": "http://spor.ema.europa.eu/v1/lists/100000072051",
              "code": "100000072085",
              "display": "Medicinal product subject to special medical prescription"
            }
          ]
        },
        "classification": [
          {
            "coding": [
              {
                "system": "http://spor.ema.europa.eu/v1/lists/100000093533",
                "code": "100000125051",
                "display": "N06BA12"
              }
            ]
          }
        ],
        "name": [
          {
            "productName": "Elvanse 50 mg Kapsel, h\u00e5rd",
            "namePart": [
              {
                "part": "Elvanse",
                "type": {
                  "coding": [
                    {
                      "system": "http://spor.ema.europa.eu/v1/lists/220000000000",
                      "code": "220000000002",
                      "display": "Invented Name Part"
                    }
                  ]
                }
              },
              {
                "part": "50 mg",
                "type": {
                  "coding": [
                    {
                      "system": "http://spor.ema.europa.eu/v1/lists/220000000000",
                      "code": "220000000004",
                      "display": "Strength part"
                    }
                  ]
                }
              },
              {
                "part": "Kapsel, h\u00e5rd",
                "type": {
                  "coding": [
                    {
                      "system": "http://spor.ema.europa.eu/v1/lists/220000000000",
                      "code": "220000000005",
                      "display": "Pharmaceutical dose form part"
                    }
                  ]
                }
              }
            ],
            "countryLanguage": [
              {
                "country": {
                  "coding": [
                    {
                      "system": "http://spor.ema.europa.eu/v1/lists/100000000002",
                      "code": "100000000535",
                      "display": "Sweden"
                    }
                  ]
                },
                "language": {
                  "coding": [
                    {
                      "system": "http://spor.ema.europa.eu/v1/lists/100000072057",
                      "code": "100000072288",
                      "display": "Swedish"
                    }
                  ]
                }
              }
            ]
          }
        ]
      },
      "request": {
        "method": "PUT",
        "url": "MedicinalProductDefinition/Elvanse-50mg-Capsule-SE-AJ-MedicinalProductDefinition"
      },
      "fullUrl": "https://hl7-eu.github.io/unicom-ig/branches/mpd-r4b/MedicinalProductDefinition/Elvanse-50mg-Capsule-SE-AJ-MedicinalProductDefinition"
    },
    {
      "resource": {
        "resourceType": "RegulatedAuthorization",
        "id": "Elvanse-50mg-Capsule-SE-AJ-RegulatedAuthorization",
        "meta": {
          "versionId": "1",
          "lastUpdated": "2022-08-09T14:17:27.17+00:00"
        },
        "identifier": [
          {
            "system": "http://ema.europa.eu/fhir/MarketingAuthorizationNumber",
            "value": "47383"
          }
        ],
        "subject": [
          {
            "reference": "MedicinalProductDefinition/Elvanse-50mg-Capsule-SE-AJ-MedicinalProductDefinition"
          }
        ],
        "type": {
          "coding": [
            {
              "system": "http://spor.ema.europa.eu/v1/lists/220000000060",
              "code": "220000000061",
              "display": "Marketing Authorisation"
            }
          ]
        },
        "region": [
          {
            "coding": [
              {
                "system": "http://spor.ema.europa.eu/v1/lists/100000000002",
                "code": "100000000535",
                "display": "Sweden"
              }
            ]
          }
        ],
        "status": {
          "coding": [
            {
              "system": "http://spor.ema.europa.eu/v1/lists/100000072049",
              "code": "100000072099",
              "display": "Valid"
            }
          ]
        },
        "statusDate": "2013-07-22",
        "holder": {
          "identifier": {
            "system": "https://spor.ema.europa.eu/v1/locations",
            "value": "LOC-100011567"
          },
          "display": "Shire Pharmaceuticals Ireland Limited"
        },
        "case": {
          "type": {
            "coding": [
              {
                "system": "http://ema.europa.eu/fhir/authorisationDateType",
                "code": "dateOfFirstAuthorisation",
                "display": "First Authorisation"
              }
            ]
          },
          "dateDateTime": "2013-07-22"
        }
      },
      "request": {
        "method": "PUT",
        "url": "RegulatedAuthorization/Elvanse-50mg-Capsule-SE-AJ-RegulatedAuthorization"
      },
      "fullUrl": "https://hl7-eu.github.io/unicom-ig/branches/mpd-r4b/RegulatedAuthorization/Elvanse-50mg-Capsule-SE-AJ-RegulatedAuthorization"
    },
    {
      "resource": {
        "resourceType": "PackagedProductDefinition",
        "id": "Elvanse-50mg-Capsule-SE-AJ-PackagedProductDefinition",
        "meta": {
          "versionId": "1",
          "lastUpdated": "2022-08-09T14:17:27.208+00:00"
        },
        "extension": [
          {
            "url": "http://ema.europa.eu/fhir/extension/containedItemQuantity",
            "valueQuantity": {
              "value": 30,
              "unit": "Capsule",
              "system": "http://spor.ema.europa.eu/v1/lists/200000000014",
              "code": "200000002113"
            }
          }
        ],
        "packageFor": [
          {
            "reference": "MedicinalProductDefinition/Elvanse-50mg-Capsule-SE-AJ-MedicinalProductDefinition"
          }
        ],
        "description": "Burk, 30 kapslar",
        "_description": {
          "extension": [
            {
              "url": "http://ema.europa.eu/fhir/extension/language",
              "valueCoding": {
                "system": "http://spor.ema.europa.eu/v1/lists/100000072057",
                "code": "100000072288",
                "display": "Swedish"
              }
            }
          ]
        },
        "marketingStatus": [
          {
            "country": {
              "coding": [
                {
                  "system": "http://spor.ema.europa.eu/v1/lists/100000000002",
                  "code": "100000000535",
                  "display": "Sweden"
                }
              ]
            },
            "status": {
              "coding": [
                {
                  "system": "http://spor.ema.europa.eu/v1/lists/100000072052",
                  "code": "100000072083",
                  "display": "Marketed"
                }
              ]
            }
          }
        ],
        "package": {
          "type": {
            "coding": [
              {
                "system": "https://spor.ema.europa.eu/v1/lists/100000073346",
                "code": "100000073498",
                "display": "Box"
              }
            ]
          },
          "quantity": 1,
          "material": [
            {
              "coding": [
                {
                  "system": "https://spor.ema.europa.eu/v1/lists/200000003199",
                  "code": "200000003529",
                  "display": "Cardboard"
                }
              ]
            }
          ],
          "shelfLifeStorage": [
            {
              "type": {
                "coding": [
                  {
                    "system": "https://spor.ema.europa.eu/v1/lists/100000073343",
                    "code": "100000073403",
                    "display": "Shelf life of the medicinal product as packaged for sale"
                  }
                ]
              },
              "periodDuration": {
                "value": 3,
                "unit": "Year",
                "system": "http://spor.ema.europa.eu/v1/lists/100000110633",
                "code": "200000003434"
              },
              "specialPrecautionsForStorage": [
                {
                  "coding": [
                    {
                      "system": "https://spor.ema.europa.eu/v1/lists/100000073344",
                      "code": "100000073410",
                      "display": "Do not store above 25 \u00b0C"
                    }
                  ]
                }
              ]
            }
          ],
          "package": [
            {
              "type": {
                "coding": [
                  {
                    "system": "https://spor.ema.europa.eu/v1/lists/100000073346",
                    "code": "100000073497",
                    "display": "Bottle"
                  }
                ]
              },
              "quantity": 1,
              "material": [
                {
                  "coding": [
                    {
                      "system": "https://spor.ema.europa.eu/v1/lists/200000003199",
                      "code": "200000003215",
                      "display": "High Density PolyEthylene"
                    }
                  ]
                }
              ],
              "containedItem": [
                {
                  "item": {
                    "reference": {
                      "reference": "ManufacturedItemDefinition/Elvanse-50mg-Capsule-SE-AJ-ManufacturedItemDefinition"
                    }
                  },
                  "amount": {
                    "value": 30,
                    "unit": "Capsule",
                    "system": "http://spor.ema.europa.eu/v1/lists/200000000014",
                    "code": "200000002113"
                  }
                }
              ]
            }
          ]
        }
      },
      "request": {
        "method": "PUT",
        "url": "PackagedProductDefinition/Elvanse-50mg-Capsule-SE-AJ-PackagedProductDefinition"
      },
      "fullUrl": "https://hl7-eu.github.io/unicom-ig/branches/mpd-r4b/PackagedProductDefinition/Elvanse-50mg-Capsule-SE-AJ-PackagedProductDefinition"
    },
    {
      "resource": {
        "resourceType": "ManufacturedItemDefinition",
        "id": "Elvanse-50mg-Capsule-SE-AJ-ManufacturedItemDefinition",
        "meta": {
          "versionId": "1",
          "lastUpdated": "2022-08-09T14:17:27.218+00:00"
        },
        "status": "active",
        "manufacturedDoseForm": {
          "coding": [
            {
              "system": "http://spor.ema.europa.eu/v1/lists/200000000004",
              "code": "100000073375",
              "display": "Capsule, hard"
            }
          ]
        },
        "unitOfPresentation": {
          "coding": [
            {
              "system": "http://spor.ema.europa.eu/v1/lists/200000000014",
              "code": "200000002113",
              "display": "Capsule"
            }
          ]
        }
      },
      "request": {
        "method": "PUT",
        "url": "ManufacturedItemDefinition/Elvanse-50mg-Capsule-SE-AJ-ManufacturedItemDefinition"
      },
      "fullUrl": "https://hl7-eu.github.io/unicom-ig/branches/mpd-r4b/ManufacturedItemDefinition/Elvanse-50mg-Capsule-SE-AJ-ManufacturedItemDefinition"
    },
    {
      "resource": {
        "resourceType": "Ingredient",
        "id": "Elvanse-50mg-Capsule-SE-AJ-Ingredient",
        "meta": {
          "versionId": "1",
          "lastUpdated": "2022-08-09T14:17:27.229+00:00"
        },
        "status": "active",
        "for": [
          {
            "reference": "MedicinalProductDefinition/Elvanse-50mg-Capsule-SE-AJ-MedicinalProductDefinition"
          },
          {
            "reference": "ManufacturedItemDefinition/Elvanse-50mg-Capsule-SE-AJ-ManufacturedItemDefinition"
          },
          {
            "reference": "AdministrableProductDefinitionElvanse-50mg-Capsule-SE-AJ-AdministrableProductDefinition01"
          },
          {
            "reference": "AdministrableProductDefinitionElvanse-50mg-Capsule-SE-AJ-AdministrableProductDefinition02"
          }
        ],
        "role": {
          "coding": [
            {
              "system": "http://spor.ema.europa.eu/v1/lists/100000072050",
              "code": "100000072072",
              "display": "Active"
            }
          ]
        },
        "substance": {
          "code": {
            "concept": {
              "coding": [
                {
                  "system": "http://spor.azure-api.net/sms/api/v2/SubstanceDefinition",
                  "code": "100000124520",
                  "display": "lisdexamfetamine dimesylate"
                }
              ]
            }
          },
          "strength": [
            {
              "presentationRatio": {
                "numerator": {
                  "value": 50,
                  "_comparator": {
                    "extension": [
                      {
                        "url": "http://ema.europa.eu/fhir/extension/comparator",
                        "valueCoding": {
                          "system": "https://spor.ema.europa.eu/v1/lists/100000000008",
                          "code": "100000000049",
                          "display": "equal to"
                        }
                      }
                    ]
                  },
                  "unit": "milligram(s)",
                  "system": "https://spor.ema.europa.eu/v1/lists/100000110633",
                  "code": "100000110655"
                },
                "denominator": {
                  "value": 1,
                  "unit": "Capsule",
                  "system": "https://spor.ema.europa.eu/v1/lists/200000000014",
                  "code": "200000002113"
                }
              },
              "referenceStrength": [
                {
                  "substance": {
                    "concept": {
                      "coding": [
                        {
                          "system": "https://spor.ema.europa.eu/v2/SubstanceDefinition",
                          "code": "100000124476",
                          "display": "lisdexamfetamine"
                        }
                      ]
                    }
                  },
                  "strengthRatio": {
                    "numerator": {
                      "value": 28.83,
                      "_comparator": {
                        "extension": [
                          {
                            "url": "http://ema.europa.eu/fhir/extension/comparator",
                            "valueCoding": {
                              "system": "https://spor.ema.europa.eu/v1/lists/100000000008",
                              "code": "100000000049",
                              "display": "equal to"
                            }
                          }
                        ]
                      },
                      "unit": "milligram(s)",
                      "system": "https://spor.ema.europa.eu/v1/lists/100000110633",
                      "code": "100000110655"
                    },
                    "denominator": {
                      "value": 1,
                      "unit": "Capsule",
                      "system": "https://spor.ema.europa.eu/v1/lists/200000000014",
                      "code": "200000002113"
                    }
                  }
                },
                {
                  "substance": {
                    "concept": {
                      "coding": [
                        {
                          "system": "https://spor.ema.europa.eu/v2/SubstanceDefinition",
                          "code": "100000088421",
                          "display": "dexamfetamine"
                        }
                      ]
                    }
                  },
                  "strengthRatio": {
                    "numerator": {
                      "value": 14.8,
                      "_comparator": {
                        "extension": [
                          {
                            "url": "http://ema.europa.eu/fhir/extension/comparator",
                            "valueCoding": {
                              "system": "https://spor.ema.europa.eu/v1/lists/100000000008",
                              "code": "100000000049",
                              "display": "equal to"
                            }
                          }
                        ]
                      },
                      "unit": "milligram(s)",
                      "system": "https://spor.ema.europa.eu/v1/lists/100000110633",
                      "code": "100000110655"
                    },
                    "denominator": {
                      "value": 1,
                      "unit": "Capsule",
                      "system": "https://spor.ema.europa.eu/v1/lists/200000000014",
                      "code": "200000002113"
                    }
                  }
                }
              ]
            }
          ]
        }
      },
      "request": {
        "method": "PUT",
        "url": "Ingredient/Elvanse-50mg-Capsule-SE-AJ-Ingredient"
      },
      "fullUrl": "https://hl7-eu.github.io/unicom-ig/branches/mpd-r4b/Ingredient/Elvanse-50mg-Capsule-SE-AJ-Ingredient"
    }
  ]
}