{
  "id": "Espranor-8mg-Lyophilisate-SE-BS-MedicinalProductDefinition-BBDL",
  "type": "transaction",
  "resourceType": "Bundle",
  "entry": [
    {
      "resource": {
        "resourceType": "MedicinalProductDefinition",
        "id": "Espranor-8mg-Lyophilisate-SE-BS-MedicinalProductDefinition",
        "meta": {
          "versionId": "1",
          "lastUpdated": "2022-11-06T07:55:43.461+00:00"
        },
        "extension": [
          {
            "url": "http://ema.europa.eu/fhir/extension/authorisedDoseForm",
            "valueCoding": {
              "system": "http://spor.ema.europa.eu/v1/lists/200000000004",
              "code": "100000073682",
              "display": "Oral lyophilisate"
            }
          }
        ],
        "identifier": [
          {
            "system": "http://ema.europa.eu/fhir/mpId",
            "value": "SE-XXXXXXXXX-00051208"
          },
          {
            "system": "http://ema.europa.eu/fhir/eurdId",
            "value": "461"
          }
        ],
        "domain": {
          "coding": [
            {
              "system": "http://spor.ema.europa.eu/v1/lists/100000000004",
              "code": "100000000012",
              "display": "Human use"
            }
          ]
        },
        "status": {
          "coding": [
            {
              "system": "http://spor.ema.europa.eu/v1/lists/200000005003",
              "code": "200000005004",
              "display": "Current"
            }
          ]
        },
        "indication": "Substitutionsbehandling f\u00f6r opioidberoende, inom ramen f\u00f6r en medicinsk, social och psykologisk behandling. Behandling med Espranor frystorkad tablett \u00e4r avsedd f\u00f6r vuxna och ungdomar i \u00e5ldern 15 \u00e5r och \u00e4ldre som har samtyckt till behandling av sitt beroende.",
        "legalStatusOfSupply": {
          "coding": [
            {
              "system": "http://spor.ema.europa.eu/v1/lists/100000072051",
              "code": "100000072085",
              "display": "Medicinal product subject to special medical prescription"
            }
          ]
        },
        "classification": [
          {
            "coding": [
              {
                "system": "http://spor.ema.europa.eu/v1/lists/100000116677",
                "code": "100000097495",
                "display": "N07BC01"
              }
            ]
          }
        ],
        "name": [
          {
            "productName": "Espranor 8 mg frystorkad tablett",
            "namePart": [
              {
                "part": "Espranor",
                "type": {
                  "coding": [
                    {
                      "system": "http://spor.ema.europa.eu/v1/lists/220000000000",
                      "code": "220000000002",
                      "display": "Invented name part"
                    }
                  ]
                }
              },
              {
                "part": "8 mg",
                "type": {
                  "coding": [
                    {
                      "system": "http://spor.ema.europa.eu/v1/lists/220000000000",
                      "code": "220000000004",
                      "display": "Strength part"
                    }
                  ]
                }
              },
              {
                "part": "Frystorkad tablett",
                "type": {
                  "coding": [
                    {
                      "system": "http://spor.ema.europa.eu/v1/lists/220000000000",
                      "code": "220000000005",
                      "display": "Pharmaceutical dose form part"
                    }
                  ]
                }
              }
            ],
            "countryLanguage": [
              {
                "country": {
                  "coding": [
                    {
                      "system": "http://spor.ema.europa.eu/v1/lists/100000000002",
                      "code": "100000000535",
                      "display": "Sweden"
                    }
                  ]
                },
                "language": {
                  "coding": [
                    {
                      "system": "http://spor.ema.europa.eu/v1/lists/100000072057",
                      "code": "100000072288",
                      "display": "Swedish"
                    }
                  ]
                }
              }
            ]
          }
        ]
      },
      "request": {
        "method": "PUT",
        "url": "MedicinalProductDefinition/Espranor-8mg-Lyophilisate-SE-BS-MedicinalProductDefinition"
      },
      "fullUrl": "https://hl7-eu.github.io/unicom-ig/branches/mpd-r4b/MedicinalProductDefinition/Espranor-8mg-Lyophilisate-SE-BS-MedicinalProductDefinition"
    },
    {
      "resource": {
        "resourceType": "RegulatedAuthorization",
        "id": "Espranor-8mg-Lyophilisate-SE-BS-RegulatedAuthorization",
        "meta": {
          "versionId": "1",
          "lastUpdated": "2022-11-06T07:55:43.486+00:00"
        },
        "identifier": [
          {
            "system": "http://ema.europa.eu/fhir/MarketingAuthorizationNumber",
            "value": "51208"
          }
        ],
        "subject": [
          {
            "reference": "MedicinalProductDefinition/Espranor-8mg-Lyophilisate-SE-BS-MedicinalProductDefinition"
          }
        ],
        "type": {
          "coding": [
            {
              "system": "http://spor.ema.europa.eu/v1/lists/220000000060",
              "code": "220000000061",
              "display": "Marketing Authorisation"
            }
          ]
        },
        "region": [
          {
            "coding": [
              {
                "system": "http://spor.ema.europa.eu/v1/lists/100000000002",
                "code": "100000000535",
                "display": "Sweden"
              }
            ]
          }
        ],
        "status": {
          "coding": [
            {
              "system": "http://spor.ema.europa.eu/v1/lists/100000072049",
              "code": "100000072099",
              "display": "Valid"
            }
          ]
        },
        "statusDate": "2015-07-16",
        "holder": {
          "identifier": {
            "system": "https://spor.ema.europa.eu/v1/locations",
            "value": "LOC-XXXXXXXX"
          },
          "display": "Etypharm"
        },
        "case": {
          "type": {
            "coding": [
              {
                "system": "http://ema.europa.eu/fhir/authorisationDateType",
                "code": "dateOfFirstAuthorisation",
                "display": "First Authorisation"
              }
            ]
          },
          "dateDateTime": "2015-07-16"
        }
      },
      "request": {
        "method": "PUT",
        "url": "RegulatedAuthorization/Espranor-8mg-Lyophilisate-SE-BS-RegulatedAuthorization"
      },
      "fullUrl": "https://hl7-eu.github.io/unicom-ig/branches/mpd-r4b/RegulatedAuthorization/Espranor-8mg-Lyophilisate-SE-BS-RegulatedAuthorization"
    },
    {
      "resource": {
        "resourceType": "PackagedProductDefinition",
        "id": "Espranor-8mg-Lyophilisate-SE-BS-PackagedProductDefinition01",
        "meta": {
          "versionId": "1",
          "lastUpdated": "2022-11-06T07:55:43.513+00:00"
        },
        "extension": [
          {
            "url": "http://ema.europa.eu/fhir/extension/containedItemQuantity",
            "valueQuantity": {
              "value": 28,
              "unit": "Tablet",
              "system": "http://spor.ema.europa.eu/v1/lists/200000000014",
              "code": "200000002152"
            }
          }
        ],
        "packageFor": [
          {
            "reference": "MedicinalProductDefinition/Espranor-8mg-Lyophilisate-SE-BS-MedicinalProductDefinition"
          }
        ],
        "description": "Blister, 28 tabletter (endos)",
        "_description": {
          "extension": [
            {
              "url": "http://ema.europa.eu/fhir/extension/language",
              "valueCoding": {
                "system": "http://spor.ema.europa.eu/v1/lists/100000072057",
                "code": "100000072288",
                "display": "Swedish"
              }
            }
          ]
        },
        "marketingStatus": [
          {
            "country": {
              "coding": [
                {
                  "system": "http://spor.ema.europa.eu/v1/lists/100000000002",
                  "code": "100000000535",
                  "display": "Sweden"
                }
              ]
            },
            "status": {
              "coding": [
                {
                  "system": "http://spor.ema.europa.eu/v1/lists/100000072052",
                  "code": "100000072083",
                  "display": "Marketed"
                }
              ]
            }
          }
        ],
        "package": {
          "type": {
            "coding": [
              {
                "system": "https://spor.ema.europa.eu/v1/lists/100000073346",
                "code": "100000073498",
                "display": "Box"
              }
            ]
          },
          "quantity": 1,
          "material": [
            {
              "coding": [
                {
                  "system": "https://spor.ema.europa.eu/v1/lists/200000003199",
                  "code": "200000003529",
                  "display": "Cardboard"
                }
              ]
            }
          ],
          "package": [
            {
              "type": {
                "coding": [
                  {
                    "system": "https://spor.ema.europa.eu/v1/lists/100000073346",
                    "code": "100000073496",
                    "display": "Blister"
                  }
                ]
              },
              "quantity": 28,
              "material": [
                {
                  "coding": [
                    {
                      "system": "https://spor.ema.europa.eu/v1/lists/200000003199",
                      "code": "200000003200",
                      "display": "Aluminium"
                    }
                  ]
                },
                {
                  "coding": [
                    {
                      "system": "https://spor.ema.europa.eu/v1/lists/200000003199",
                      "code": "200000003222",
                      "display": "PolyVinyl Chloride"
                    }
                  ]
                },
                {
                  "coding": [
                    {
                      "system": "https://spor.ema.europa.eu/v1/lists/200000003199",
                      "code": "200000003210",
                      "display": "Orientated PolyAmide"
                    }
                  ]
                },
                {
                  "coding": [
                    {
                      "system": "https://spor.ema.europa.eu/v1/lists/200000003199",
                      "code": "200000003217",
                      "display": "PolyEthylene TerePhthalate"
                    }
                  ]
                },
                {
                  "coding": [
                    {
                      "system": "https://spor.ema.europa.eu/v1/lists/200000003199",
                      "code": "200000003207",
                      "display": "Paper"
                    }
                  ]
                }
              ],
              "containedItem": [
                {
                  "item": {
                    "reference": {
                      "reference": "ManufacturedItemDefinition/Espranor-8mg-Lyophilisate-SE-BS-ManufacturedItemDefinition"
                    }
                  },
                  "amount": {
                    "value": 1,
                    "unit": "Tablet",
                    "system": "http://spor.ema.europa.eu/v1/lists/100000110633",
                    "code": "200000002152"
                  }
                }
              ]
            }
          ]
        }
      },
      "request": {
        "method": "PUT",
        "url": "PackagedProductDefinition/Espranor-8mg-Lyophilisate-SE-BS-PackagedProductDefinition01"
      },
      "fullUrl": "https://hl7-eu.github.io/unicom-ig/branches/mpd-r4b/PackagedProductDefinition/Espranor-8mg-Lyophilisate-SE-BS-PackagedProductDefinition01"
    },
    {
      "resource": {
        "resourceType": "PackagedProductDefinition",
        "id": "Espranor-8mg-Lyophilisate-SE-BS-PackagedProductDefinition02",
        "meta": {
          "versionId": "1",
          "lastUpdated": "2022-11-06T07:55:43.524+00:00"
        },
        "extension": [
          {
            "url": "http://ema.europa.eu/fhir/extension/containedItemQuantity",
            "valueQuantity": {
              "value": 7,
              "unit": "Tablet",
              "system": "http://spor.ema.europa.eu/v1/lists/200000000014",
              "code": "200000002152"
            }
          }
        ],
        "packageFor": [
          {
            "reference": "MedicinalProductDefinition/Espranor-8mg-Lyophilisate-SE-BS-MedicinalProductDefinition"
          }
        ],
        "description": "Blister, 7 tabletter (endos)",
        "_description": {
          "extension": [
            {
              "url": "http://ema.europa.eu/fhir/extension/language",
              "valueCoding": {
                "system": "http://spor.ema.europa.eu/v1/lists/100000072057",
                "code": "100000072288",
                "display": "Swedish"
              }
            }
          ]
        },
        "marketingStatus": [
          {
            "country": {
              "coding": [
                {
                  "system": "http://spor.ema.europa.eu/v1/lists/100000000002",
                  "code": "100000000535",
                  "display": "Sweden"
                }
              ]
            },
            "status": {
              "coding": [
                {
                  "system": "http://spor.ema.europa.eu/v1/lists/100000072052",
                  "code": "100000072083",
                  "display": "Marketed"
                }
              ]
            }
          }
        ],
        "package": {
          "type": {
            "coding": [
              {
                "system": "https://spor.ema.europa.eu/v1/lists/100000073346",
                "code": "100000073498",
                "display": "Box"
              }
            ]
          },
          "quantity": 1,
          "material": [
            {
              "coding": [
                {
                  "system": "https://spor.ema.europa.eu/v1/lists/200000003199",
                  "code": "200000003529",
                  "display": "Cardboard"
                }
              ]
            }
          ],
          "package": [
            {
              "type": {
                "coding": [
                  {
                    "system": "https://spor.ema.europa.eu/v1/lists/100000073346",
                    "code": "100000073496",
                    "display": "Blister"
                  }
                ]
              },
              "quantity": 28,
              "material": [
                {
                  "coding": [
                    {
                      "system": "https://spor.ema.europa.eu/v1/lists/200000003199",
                      "code": "200000003200",
                      "display": "Aluminium"
                    }
                  ]
                },
                {
                  "coding": [
                    {
                      "system": "https://spor.ema.europa.eu/v1/lists/200000003199",
                      "code": "200000003222",
                      "display": "PolyVinyl Chloride"
                    }
                  ]
                },
                {
                  "coding": [
                    {
                      "system": "https://spor.ema.europa.eu/v1/lists/200000003199",
                      "code": "200000003210",
                      "display": "Orientated PolyAmide"
                    }
                  ]
                },
                {
                  "coding": [
                    {
                      "system": "https://spor.ema.europa.eu/v1/lists/200000003199",
                      "code": "200000003217",
                      "display": "PolyEthylene TerePhthalate"
                    }
                  ]
                },
                {
                  "coding": [
                    {
                      "system": "https://spor.ema.europa.eu/v1/lists/200000003199",
                      "code": "200000003207",
                      "display": "Paper"
                    }
                  ]
                }
              ],
              "containedItem": [
                {
                  "item": {
                    "reference": {
                      "reference": "ManufacturedItemDefinition/Espranor-8mg-Lyophilisate-SE-BS-ManufacturedItemDefinition"
                    }
                  },
                  "amount": {
                    "value": 1,
                    "unit": "Tablet",
                    "system": "http://spor.ema.europa.eu/v1/lists/100000110633",
                    "code": "200000002152"
                  }
                }
              ]
            }
          ]
        }
      },
      "request": {
        "method": "PUT",
        "url": "PackagedProductDefinition/Espranor-8mg-Lyophilisate-SE-BS-PackagedProductDefinition02"
      },
      "fullUrl": "https://hl7-eu.github.io/unicom-ig/branches/mpd-r4b/PackagedProductDefinition/Espranor-8mg-Lyophilisate-SE-BS-PackagedProductDefinition02"
    },
    {
      "resource": {
        "resourceType": "ManufacturedItemDefinition",
        "id": "Espranor-8mg-Lyophilisate-SE-BS-ManufacturedItemDefinition",
        "meta": {
          "versionId": "1",
          "lastUpdated": "2022-11-06T07:55:43.536+00:00"
        },
        "status": "active",
        "manufacturedDoseForm": {
          "coding": [
            {
              "system": "http://spor.ema.europa.eu/v1/lists/200000000004",
              "code": "100000073682",
              "display": "Oral lyophilisate"
            }
          ]
        },
        "unitOfPresentation": {
          "coding": [
            {
              "system": "http://spor.ema.europa.eu/v1/lists/200000000014",
              "code": "200000002152",
              "display": "Tablet"
            }
          ]
        }
      },
      "request": {
        "method": "PUT",
        "url": "ManufacturedItemDefinition/Espranor-8mg-Lyophilisate-SE-BS-ManufacturedItemDefinition"
      },
      "fullUrl": "https://hl7-eu.github.io/unicom-ig/branches/mpd-r4b/ManufacturedItemDefinition/Espranor-8mg-Lyophilisate-SE-BS-ManufacturedItemDefinition"
    },
    {
      "resource": {
        "resourceType": "Ingredient",
        "id": "Espranor-8mg-Lyophilisate-SE-BS-Ingredient",
        "meta": {
          "versionId": "1",
          "lastUpdated": "2022-11-06T07:55:43.547+00:00"
        },
        "status": "active",
        "for": [
          {
            "reference": "MedicinalProductDefinition/Espranor-8mg-Lyophilisate-SE-BS-MedicinalProductDefinition"
          },
          {
            "reference": "ManufacturedItemDefinition/Espranor-8mg-Lyophilisate-SE-BS-ManufacturedItemDefinition"
          },
          {
            "reference": "AdministrableProductDefinition/Espranor-8mg-Lyophilisate-SE-BS-AdministrableProductDefinition"
          }
        ],
        "role": {
          "coding": [
            {
              "system": "http://spor.ema.europa.eu/v1/lists/100000072050",
              "code": "100000072072",
              "display": "Active"
            }
          ]
        },
        "substance": {
          "code": {
            "concept": {
              "coding": [
                {
                  "system": "http://spor.azure-api.net/sms/api/v2/SubstanceDefinition",
                  "code": "100000092032",
                  "display": "Buprenorphine hydrochloride"
                }
              ]
            }
          },
          "strength": [
            {
              "presentationRatio": {
                "numerator": {
                  "value": 8.624,
                  "_comparator": {
                    "extension": [
                      {
                        "url": "http://ema.europa.eu/fhir/extension/comparator",
                        "valueCoding": {
                          "system": "https://spor.ema.europa.eu/v1/lists/100000000008",
                          "code": "100000000049",
                          "display": "equal to"
                        }
                      }
                    ]
                  },
                  "unit": "milligram(s)",
                  "system": "http://spor.ema.europa.eu/v1/lists/100000110633",
                  "code": "100000110655"
                },
                "denominator": {
                  "value": 1,
                  "unit": "tablet",
                  "system": "http://spor.ema.europa.eu/v1/lists/100000110633",
                  "code": "200000002152"
                }
              },
              "referenceStrength": [
                {
                  "substance": {
                    "concept": {
                      "coding": [
                        {
                          "system": "https://spor.ema.europa.eu/v2/SubstanceDefinition",
                          "code": "100000085263",
                          "display": "Buprenorphine"
                        }
                      ]
                    }
                  },
                  "strengthRatio": {
                    "numerator": {
                      "value": 8,
                      "_comparator": {
                        "extension": [
                          {
                            "url": "http://ema.europa.eu/fhir/extension/comparator",
                            "valueCoding": {
                              "system": "https://spor.ema.europa.eu/v1/lists/100000000008",
                              "code": "100000000049",
                              "display": "equal to"
                            }
                          }
                        ]
                      },
                      "unit": "milligram(s)",
                      "system": "http://spor.ema.europa.eu/v1/lists/100000110633",
                      "code": "100000110655"
                    },
                    "denominator": {
                      "value": 1,
                      "unit": "tablet",
                      "system": "http://spor.ema.europa.eu/v1/lists/100000110633",
                      "code": "200000002152"
                    }
                  }
                }
              ]
            }
          ]
        }
      },
      "request": {
        "method": "PUT",
        "url": "Ingredient/Espranor-8mg-Lyophilisate-SE-BS-Ingredient"
      },
      "fullUrl": "https://hl7-eu.github.io/unicom-ig/branches/mpd-r4b/Ingredient/Espranor-8mg-Lyophilisate-SE-BS-Ingredient"
    }
  ]
}