{
  "id": "Herceptin-150mg-Powder-SE-IS-MedicinalProductDefinition-BBDL",
  "type": "transaction",
  "resourceType": "Bundle",
  "entry": [
    {
      "resource": {
        "resourceType": "MedicinalProductDefinition",
        "id": "Herceptin-150mg-Powder-SE-IS-MedicinalProductDefinition",
        "meta": {
          "versionId": "1",
          "lastUpdated": "2022-08-09T15:00:04.212+00:00"
        },
        "extension": [
          {
            "url": "http://ema.europa.eu/fhir/extension/authorisedDoseForm",
            "valueCoding": {
              "system": "http://spor.ema.europa.eu/v1/lists/200000000004",
              "code": "100000074029",
              "display": "Powder for concentrate for solution for infusion"
            }
          }
        ],
        "identifier": [
          {
            "system": "http://ema.europa.eu/fhir/mpId",
            "value": "SE-100007814-00015488"
          },
          {
            "system": "http://ema.europa.eu/fhir/eurdId",
            "value": "3010"
          }
        ],
        "domain": {
          "coding": [
            {
              "system": "http://spor.ema.europa.eu/v1/lists/100000000004",
              "code": "100000000012",
              "display": "Human use"
            }
          ]
        },
        "status": {
          "coding": [
            {
              "system": "http://spor.ema.europa.eu/v1/lists/200000005003",
              "code": "200000005004",
              "display": "Current"
            }
          ]
        },
        "indication": "Br\u00f6stcancer Metastaserad br\u00f6stcancer Herceptin \u00e4r indicerat f\u00f6r behandling av vuxna patienter med HER2-positiv metastaserad br\u00f6stcancer: - som monoterapi f\u00f6r behandling av de patienter som har f\u00e5tt \u00e5tminstone tv\u00e5 kemoterapiregimer  mot metastaserad sjukdom. Tidigare kemoterapi m\u00e5ste ha inkluderat \u00e5tminstone ett antracyklin och ett taxanpreparat s\u00e5vida inte s\u00e5dana behandlingar \u00e4r ol\u00e4mpliga f\u00f6r dessa patienter.  Hormonreceptorpositiva patienter m\u00e5ste ocks\u00e5 ha sviktat p\u00e5 hormonterapi, s\u00e5vida inte s\u00e5dan  behandling \u00e4r ol\u00e4mplig f\u00f6r dessa patienter. - i kombination med paklitaxel f\u00f6r behandling av de patienter som inte f\u00e5tt kemoterapi mot  metastaserad sjukdom och f\u00f6r vilka ett antracyklinpreparat ej \u00e4r l\u00e4mpligt. - i kombination med docetaxel f\u00f6r behandling av de patienter som inte f\u00e5tt kemoterapi mot  metastaserad sjukdom.  - i kombination med en aromatash\u00e4mmare f\u00f6r behandling av post-menopausala patienter med  hormonreceptorpositiv metastaserad br\u00f6stcancer som inte tidigare behandlats med trastuzumab. Tidig br\u00f6stcancer Herceptin \u00e4r indicerat f\u00f6r behandling av vuxna patienter med HER2-positiv tidig br\u00f6stcancer: - efter kirurgi, kemoterapi (neoadjuvant eller adjuvant) och str\u00e5lbehandling (om till\u00e4mpbart) (se  avsnitt 5.1). - efter adjuvant kemoterapi med doxorubicin och cyklofosfamid, i kombination med paklitaxel  eller docetaxel. 3 - i kombination med adjuvant kemoterapi som utg\u00f6rs av docetaxel och karboplatin. - i kombination med neoadjuvant kemoterapi f\u00f6ljt av adjuvant behandling med Herceptin, f\u00f6r  lokalt avancerad (inklusive inflammatorisk) sjukdom eller f\u00f6r tum\u00f6rer > 2 cm i diameter (se  avsnitt 4.4 och 5.1). Herceptin b\u00f6r endast anv\u00e4ndas till patienter med metastaserad eller tidig br\u00f6stcancer vilkas tum\u00f6rer  antingen \u00f6veruttrycker HER2 eller har HER2 genamplifiering p\u00e5visad med en tillf\u00f6rlitlig och  validerad metod (se avsnitt 4.4 och 5.1). Metastaserad ventrikelcancer  Herceptin i kombination med capecitabin eller 5-fluorouracil och cisplatin \u00e4r indicerat f\u00f6r behandling  av vuxna patienter med metastaserat HER 2-positivt adenokarcinom i ventrikeln eller cardia (\u00f6vre  magmunnen) som inte tidigare f\u00e5tt behandling f\u00f6r sin metastaserade sjukdom. Herceptin ska endast anv\u00e4ndas till patienter med metastaserad ventrikelcancer vilkas tum\u00f6rer  \u00f6veruttrycker HER2 definierat som IHC2+ och ett konfirmerande positivt SISH eller FISH resultat,  eller definierat som IHC3+. Tillf\u00f6rlitliga och validerade metoder ska anv\u00e4ndas (se avsnitt 4.4 och 5.1).",
        "legalStatusOfSupply": {
          "coding": [
            {
              "system": "http://spor.ema.europa.eu/v1/lists/100000072051",
              "code": "100000072084",
              "display": "Medicinal product subject to medical prescription"
            }
          ]
        },
        "classification": [
          {
            "coding": [
              {
                "system": "http://spor.ema.europa.eu/v1/lists/100000116677",
                "code": "100000093533",
                "display": "L01FD01"
              }
            ]
          },
          {
            "coding": [
              {
                "system": "http://spor.ema.europa.eu/v1/lists/100000154442",
                "code": "100000155059",
                "display": "Centralised procedure"
              }
            ]
          },
          {
            "coding": [
              {
                "system": "http://spor.ema.europa.eu/v1/lists/100000160962",
                "code": "100000160967",
                "display": "Concerned Member State"
              }
            ]
          }
        ],
        "name": [
          {
            "productName": "Herceptin\u00ae",
            "namePart": [
              {
                "part": "Herceptin\u00ae 150 mg Pulver till konc. till infusionsv\u00e4tska, l\u00f6sning",
                "type": {
                  "coding": [
                    {
                      "system": "http://spor.ema.europa.eu/v1/lists/220000000000",
                      "code": "220000000002",
                      "display": "Invented name part"
                    }
                  ]
                }
              },
              {
                "part": "150 mg",
                "type": {
                  "coding": [
                    {
                      "system": "http://spor.ema.europa.eu/v1/lists/220000000000",
                      "code": "220000000004",
                      "display": "Strength part"
                    }
                  ]
                }
              },
              {
                "part": "Pulver till konc. till infusionsv\u00e4tska, l\u00f6sning",
                "type": {
                  "coding": [
                    {
                      "system": "http://spor.ema.europa.eu/v1/lists/220000000000",
                      "code": "220000000005",
                      "display": "Pharmaceutical dose form part"
                    }
                  ]
                }
              }
            ],
            "countryLanguage": [
              {
                "country": {
                  "coding": [
                    {
                      "system": "http://spor.ema.europa.eu/v1/lists/100000000002",
                      "code": "100000000535",
                      "display": "Sweden"
                    }
                  ]
                },
                "language": {
                  "coding": [
                    {
                      "system": "http://spor.ema.europa.eu/v1/lists/100000072057",
                      "code": "100000072288",
                      "display": "Swedish"
                    }
                  ]
                }
              }
            ]
          }
        ]
      },
      "request": {
        "method": "PUT",
        "url": "MedicinalProductDefinition/Herceptin-150mg-Powder-SE-IS-MedicinalProductDefinition"
      },
      "fullUrl": "https://hl7-eu.github.io/unicom-ig/branches/mpd-r4b/MedicinalProductDefinition/Herceptin-150mg-Powder-SE-IS-MedicinalProductDefinition"
    },
    {
      "resource": {
        "resourceType": "RegulatedAuthorization",
        "id": "Herceptin-150mg-Powder-SE-IS-RegulatedAuthorization",
        "meta": {
          "versionId": "1",
          "lastUpdated": "2022-08-09T15:00:04.671+00:00"
        },
        "identifier": [
          {
            "system": "http://ema.europa.eu/fhir/MarketingAuthorizationNumber",
            "value": "15488"
          }
        ],
        "subject": [
          {
            "reference": "MedicinalProductDefinition/Herceptin-150mg-Powder-SE-IS-MedicinalProductDefinition"
          }
        ],
        "type": {
          "coding": [
            {
              "system": "http://spor.ema.europa.eu/v1/lists/220000000060",
              "code": "220000000061",
              "display": "Marketing Authorisation"
            }
          ]
        },
        "region": [
          {
            "coding": [
              {
                "system": "http://spor.ema.europa.eu/v1/lists/100000000002",
                "code": "100000000535",
                "display": "Sweden"
              }
            ]
          }
        ],
        "status": {
          "coding": [
            {
              "system": "http://spor.ema.europa.eu/v1/lists/100000072049",
              "code": "100000072099",
              "display": "Valid"
            }
          ]
        },
        "statusDate": "2000-08-28",
        "holder": {
          "identifier": {
            "system": "https://spor.ema.europa.eu/v1/locations",
            "value": "LOC-100010587"
          },
          "display": "Roche Registration GmbH"
        },
        "case": {
          "type": {
            "coding": [
              {
                "system": "http://ema.europa.eu/fhir/authorisationDateType",
                "code": "dateOfFirstAuthorisation",
                "display": "First Authorisation"
              }
            ]
          },
          "dateDateTime": "2000-08-28"
        }
      },
      "request": {
        "method": "PUT",
        "url": "RegulatedAuthorization/Herceptin-150mg-Powder-SE-IS-RegulatedAuthorization"
      },
      "fullUrl": "https://hl7-eu.github.io/unicom-ig/branches/mpd-r4b/RegulatedAuthorization/Herceptin-150mg-Powder-SE-IS-RegulatedAuthorization"
    },
    {
      "resource": {
        "resourceType": "PackagedProductDefinition",
        "id": "Herceptin-150mg-Powder-SE-IS-PackagedProductDefinition",
        "meta": {
          "versionId": "1",
          "lastUpdated": "2022-08-09T15:00:04.711+00:00"
        },
        "extension": [
          {
            "url": "http://ema.europa.eu/fhir/extension/containedItemQuantity",
            "valueQuantity": {
              "value": 1,
              "unit": "Vial",
              "system": "http://spor.ema.europa.eu/v1/lists/200000000014",
              "code": "200000002158"
            }
          }
        ],
        "packageFor": [
          {
            "reference": "MedicinalProductDefinition/Herceptin-150mg-Powder-SE-IS-MedicinalProductDefinition"
          }
        ],
        "description": "Injektionsflaska, 1 x 150 mg",
        "_description": {
          "extension": [
            {
              "url": "http://ema.europa.eu/fhir/extension/language",
              "valueCoding": {
                "system": "http://spor.ema.europa.eu/v1/lists/100000072057",
                "code": "100000072288",
                "display": "Swedish"
              }
            }
          ]
        },
        "marketingStatus": [
          {
            "country": {
              "coding": [
                {
                  "system": "http://spor.ema.europa.eu/v1/lists/100000000002",
                  "code": "100000000535",
                  "display": "Sweden"
                }
              ]
            },
            "status": {
              "coding": [
                {
                  "system": "http://spor.ema.europa.eu/v1/lists/100000072052",
                  "code": "100000072083",
                  "display": "Marketed"
                }
              ]
            }
          }
        ],
        "package": {
          "type": {
            "coding": [
              {
                "system": "https://spor.ema.europa.eu/v1/lists/100000073346",
                "code": "100000073498",
                "display": "Box"
              }
            ]
          },
          "quantity": 1,
          "material": [
            {
              "coding": [
                {
                  "system": "https://spor.ema.europa.eu/v1/lists/200000003199",
                  "code": "200000003529",
                  "display": "Cardboard"
                }
              ]
            }
          ],
          "shelfLifeStorage": [
            {
              "type": {
                "coding": [
                  {
                    "system": "https://spor.ema.europa.eu/v1/lists/100000073343",
                    "code": "100000073403",
                    "display": "Shelf life of the medicinal product as packaged for sale"
                  }
                ]
              },
              "periodDuration": {
                "value": 4,
                "unit": "years"
              },
              "specialPrecautionsForStorage": [
                {
                  "coding": [
                    {
                      "system": "https://spor.ema.europa.eu/v1/lists/100000073344",
                      "code": "100000073414",
                      "display": "Store in a refrigerator (2\u00b0C \u2013 8\u00b0C)"
                    }
                  ]
                },
                {
                  "coding": [
                    {
                      "system": "https://spor.ema.europa.eu/v1/lists/100000073344",
                      "code": "100000073421",
                      "display": "Store in the original package"
                    }
                  ]
                }
              ]
            },
            {
              "type": {
                "coding": [
                  {
                    "system": "https://spor.ema.europa.eu/v1/lists/100000073343",
                    "code": "100000073405",
                    "display": "Shelf life after dilution or reconstitution according to directions"
                  }
                ]
              },
              "periodDuration": {
                "value": 24,
                "unit": "hours"
              },
              "specialPrecautionsForStorage": [
                {
                  "coding": [
                    {
                      "system": "https://spor.ema.europa.eu/v1/lists/100000073344",
                      "code": "100000073420",
                      "display": "Do not freeze"
                    }
                  ]
                }
              ]
            }
          ],
          "package": [
            {
              "type": {
                "coding": [
                  {
                    "system": "https://spor.ema.europa.eu/v1/lists/100000073346",
                    "code": "100000073563",
                    "display": "Vial"
                  }
                ]
              },
              "quantity": 1,
              "material": [
                {
                  "coding": [
                    {
                      "system": "https://spor.ema.europa.eu/v1/lists/200000003199",
                      "code": "200000003204",
                      "display": "Glass type I"
                    }
                  ]
                },
                {
                  "coding": [
                    {
                      "system": "https://spor.ema.europa.eu/v1/lists/200000003199",
                      "code": "200000003226",
                      "display": "Rubber"
                    }
                  ]
                }
              ],
              "containedItem": [
                {
                  "item": {
                    "reference": {
                      "reference": "ManufacturedItemDefinition/Herceptin-150mg-Powder-SE-IS-ManufacturedItemDefinition"
                    }
                  },
                  "amount": {
                    "value": 150,
                    "unit": "millilitre(s)",
                    "system": "http://spor.ema.europa.eu/v1/lists/100000110633",
                    "code": "100000110662"
                  }
                }
              ]
            }
          ]
        }
      },
      "request": {
        "method": "PUT",
        "url": "PackagedProductDefinition/Herceptin-150mg-Powder-SE-IS-PackagedProductDefinition"
      },
      "fullUrl": "https://hl7-eu.github.io/unicom-ig/branches/mpd-r4b/PackagedProductDefinition/Herceptin-150mg-Powder-SE-IS-PackagedProductDefinition"
    },
    {
      "resource": {
        "resourceType": "ManufacturedItemDefinition",
        "id": "Herceptin-150mg-Powder-SE-IS-ManufacturedItemDefinition",
        "meta": {
          "versionId": "1",
          "lastUpdated": "2022-08-09T15:00:04.741+00:00"
        },
        "status": "active",
        "manufacturedDoseForm": {
          "coding": [
            {
              "system": "http://spor.ema.europa.eu/v1/lists/200000000004",
              "code": "100000074029",
              "display": "Powder for concentrate for solution for infusion"
            }
          ]
        },
        "unitOfPresentation": {
          "coding": [
            {
              "system": "http://spor.ema.europa.eu/v1/lists/200000000014",
              "code": "200000002158",
              "display": "Vial"
            }
          ]
        }
      },
      "request": {
        "method": "PUT",
        "url": "ManufacturedItemDefinition/Herceptin-150mg-Powder-SE-IS-ManufacturedItemDefinition"
      },
      "fullUrl": "https://hl7-eu.github.io/unicom-ig/branches/mpd-r4b/ManufacturedItemDefinition/Herceptin-150mg-Powder-SE-IS-ManufacturedItemDefinition"
    },
    {
      "resource": {
        "resourceType": "Ingredient",
        "id": "Herceptin-150mg-Powder-SE-IS-Ingredient-01",
        "meta": {
          "versionId": "1",
          "lastUpdated": "2022-08-09T15:00:04.761+00:00"
        },
        "status": "active",
        "for": [
          {
            "reference": "MedicinalProductDefinition/Herceptin-150mg-Powder-SE-IS-MedicinalProductDefinition"
          },
          {
            "reference": "ManufacturedItemDefinition/Herceptin-150mg-Powder-SE-IS-ManufacturedItemDefinition"
          },
          {
            "reference": "AdministrableProductDefinition/Herceptin-150mg-Powder-SE-IS-AdministrableProductDefinition"
          }
        ],
        "role": {
          "coding": [
            {
              "system": "http://spor.ema.europa.eu/v1/lists/100000072050",
              "code": "100000072072",
              "display": "Active"
            }
          ]
        },
        "substance": {
          "code": {
            "concept": {
              "coding": [
                {
                  "system": "http://spor.azure-api.net/sms/api/v2/SubstanceDefinition",
                  "code": "100000089314",
                  "display": "Trastuzumab"
                }
              ]
            }
          },
          "strength": [
            {
              "presentationRatio": {
                "numerator": {
                  "value": 150,
                  "_comparator": {
                    "extension": [
                      {
                        "url": "http://ema.europa.eu/fhir/extension/comparator",
                        "valueCoding": {
                          "system": "https://spor.ema.europa.eu/v1/lists/100000000008",
                          "code": "100000000049",
                          "display": "equal to"
                        }
                      }
                    ]
                  },
                  "unit": "milligram(s)",
                  "system": "http://spor.ema.europa.eu/v1/lists/100000110633",
                  "code": "100000110655"
                },
                "denominator": {
                  "value": 1,
                  "unit": "unit(s)",
                  "system": "http://spor.ema.europa.eu/v1/lists/100000110633",
                  "code": "100000110756"
                }
              },
              "referenceStrength": [
                {
                  "substance": {
                    "concept": {
                      "coding": [
                        {
                          "system": "https://spor.ema.europa.eu/v2/SubstanceDefinition",
                          "code": "100000089314",
                          "display": "Trastuzumab"
                        }
                      ]
                    }
                  },
                  "strengthRatio": {
                    "numerator": {
                      "value": 150,
                      "_comparator": {
                        "extension": [
                          {
                            "url": "http://ema.europa.eu/fhir/extension/comparator",
                            "valueCoding": {
                              "system": "https://spor.ema.europa.eu/v1/lists/100000000008",
                              "code": "100000000049",
                              "display": "equal to"
                            }
                          }
                        ]
                      },
                      "unit": "milligram(s)",
                      "system": "http://spor.ema.europa.eu/v1/lists/100000110633",
                      "code": "100000110655"
                    },
                    "denominator": {
                      "value": 1,
                      "unit": "unit(s)",
                      "system": "http://spor.ema.europa.eu/v1/lists/100000110633",
                      "code": "100000110756"
                    }
                  }
                }
              ]
            }
          ]
        }
      },
      "request": {
        "method": "PUT",
        "url": "Ingredient/Herceptin-150mg-Powder-SE-IS-Ingredient-01"
      },
      "fullUrl": "https://hl7-eu.github.io/unicom-ig/branches/mpd-r4b/Ingredient/Herceptin-150mg-Powder-SE-IS-Ingredient-01"
    },
    {
      "resource": {
        "resourceType": "Ingredient",
        "id": "Herceptin-150mg-Powder-SE-IS-Ingredient-02",
        "meta": {
          "versionId": "1",
          "lastUpdated": "2022-08-09T15:00:04.78+00:00"
        },
        "status": "active",
        "for": [
          {
            "reference": "MedicinalProductDefinition/Herceptin-150mg-Powder-SE-IS-MedicinalProductDefinition"
          },
          {
            "reference": "ManufacturedItemDefinition/Herceptin-150mg-Powder-SE-IS-ManufacturedItemDefinition"
          },
          {
            "reference": "AdministrableProductDefinition/Herceptin-150mg-Powder-SE-IS-AdministrableProductDefinition"
          }
        ],
        "role": {
          "coding": [
            {
              "system": "http://spor.ema.europa.eu/v1/lists/100000072050",
              "code": "100000072082",
              "display": "Excipient"
            }
          ]
        },
        "substance": {
          "code": {
            "concept": {
              "coding": [
                {
                  "system": "http://spor.azure-api.net/sms/api/v2/SubstanceDefinition",
                  "code": "100000092646",
                  "display": "Histidine"
                }
              ]
            }
          }
        }
      },
      "request": {
        "method": "PUT",
        "url": "Ingredient/Herceptin-150mg-Powder-SE-IS-Ingredient-02"
      },
      "fullUrl": "https://hl7-eu.github.io/unicom-ig/branches/mpd-r4b/Ingredient/Herceptin-150mg-Powder-SE-IS-Ingredient-02"
    },
    {
      "resource": {
        "resourceType": "Ingredient",
        "id": "Herceptin-150mg-Powder-SE-IS-Ingredient-03",
        "meta": {
          "versionId": "1",
          "lastUpdated": "2022-08-09T15:00:04.801+00:00"
        },
        "status": "active",
        "for": [
          {
            "reference": "MedicinalProductDefinition/Herceptin-150mg-Powder-SE-IS-MedicinalProductDefinition"
          },
          {
            "reference": "ManufacturedItemDefinition/Herceptin-150mg-Powder-SE-IS-ManufacturedItemDefinition"
          },
          {
            "reference": "AdministrableProductDefinition/Herceptin-150mg-Powder-SE-IS-AdministrableProductDefinition"
          }
        ],
        "role": {
          "coding": [
            {
              "system": "http://spor.ema.europa.eu/v1/lists/100000072050",
              "code": "100000072082",
              "display": "Excipient"
            }
          ]
        },
        "substance": {
          "code": {
            "concept": {
              "coding": [
                {
                  "system": "http://spor.azure-api.net/sms/api/v2/SubstanceDefinition",
                  "code": "100000091553",
                  "display": "Histidine hydrochloride monohydrate"
                }
              ]
            }
          }
        }
      },
      "request": {
        "method": "PUT",
        "url": "Ingredient/Herceptin-150mg-Powder-SE-IS-Ingredient-03"
      },
      "fullUrl": "https://hl7-eu.github.io/unicom-ig/branches/mpd-r4b/Ingredient/Herceptin-150mg-Powder-SE-IS-Ingredient-03"
    },
    {
      "resource": {
        "resourceType": "Ingredient",
        "id": "Herceptin-150mg-Powder-SE-IS-Ingredient-04",
        "meta": {
          "versionId": "1",
          "lastUpdated": "2022-08-09T15:00:04.821+00:00"
        },
        "status": "active",
        "for": [
          {
            "reference": "MedicinalProductDefinition/Herceptin-150mg-Powder-SE-IS-MedicinalProductDefinition"
          },
          {
            "reference": "ManufacturedItemDefinition/Herceptin-150mg-Powder-SE-IS-ManufacturedItemDefinition"
          },
          {
            "reference": "AdministrableProductDefinition/Herceptin-150mg-Powder-SE-IS-AdministrableProductDefinition"
          }
        ],
        "role": {
          "coding": [
            {
              "system": "http://spor.ema.europa.eu/v1/lists/100000072050",
              "code": "100000072082",
              "display": "Excipient"
            }
          ]
        },
        "substance": {
          "code": {
            "concept": {
              "coding": [
                {
                  "system": "http://spor.azure-api.net/sms/api/v2/SubstanceDefinition",
                  "code": "100000078537",
                  "display": "Polysorbate 20"
                }
              ]
            }
          }
        }
      },
      "request": {
        "method": "PUT",
        "url": "Ingredient/Herceptin-150mg-Powder-SE-IS-Ingredient-04"
      },
      "fullUrl": "https://hl7-eu.github.io/unicom-ig/branches/mpd-r4b/Ingredient/Herceptin-150mg-Powder-SE-IS-Ingredient-04"
    },
    {
      "resource": {
        "resourceType": "Ingredient",
        "id": "Herceptin-150mg-Powder-SE-IS-Ingredient-05",
        "meta": {
          "versionId": "1",
          "lastUpdated": "2022-08-09T15:00:04.841+00:00"
        },
        "status": "active",
        "for": [
          {
            "reference": "MedicinalProductDefinition/Herceptin-150mg-Powder-SE-IS-MedicinalProductDefinition"
          },
          {
            "reference": "ManufacturedItemDefinition/Herceptin-150mg-Powder-SE-IS-ManufacturedItemDefinition"
          },
          {
            "reference": "AdministrableProductDefinition/Herceptin-150mg-Powder-SE-IS-AdministrableProductDefinition"
          }
        ],
        "role": {
          "coding": [
            {
              "system": "http://spor.ema.europa.eu/v1/lists/100000072050",
              "code": "100000072082",
              "display": "Excipient"
            }
          ]
        },
        "substance": {
          "code": {
            "concept": {
              "coding": [
                {
                  "system": "http://spor.azure-api.net/sms/api/v2/SubstanceDefinition",
                  "code": "100000078318",
                  "display": "Trehalose dihydrate"
                }
              ]
            }
          }
        }
      },
      "request": {
        "method": "PUT",
        "url": "Ingredient/Herceptin-150mg-Powder-SE-IS-Ingredient-05"
      },
      "fullUrl": "https://hl7-eu.github.io/unicom-ig/branches/mpd-r4b/Ingredient/Herceptin-150mg-Powder-SE-IS-Ingredient-05"
    }
  ]
}