{
  "id": "InfluvacTetra-0.5ml-Suspension-SE-AJ-MedicinalProductDefinition-BBDL",
  "type": "transaction",
  "resourceType": "Bundle",
  "entry": [
    {
      "resource": {
        "resourceType": "MedicinalProductDefinition",
        "id": "InfluvacTetra-0.5ml-Suspension-SE-AJ-MedicinalProductDefinition",
        "meta": {
          "versionId": "1",
          "lastUpdated": "2022-08-03T08:52:28.914+00:00"
        },
        "extension": [
          {
            "url": "http://ema.europa.eu/fhir/extension/authorisedDoseForm",
            "valueCoding": {
              "system": "http://spor.ema.europa.eu/v1/lists/200000000007",
              "code": "100000074063",
              "display": "Suspension for injection in pre-filled syringe"
            }
          }
        ],
        "identifier": [
          {
            "system": "http://ema.europa.eu/fhir/mpId",
            "value": "SE-100002180-00055200"
          },
          {
            "system": "http://ema.europa.eu/fhir/eurdId",
            "value": "1744"
          }
        ],
        "domain": {
          "coding": [
            {
              "system": "http://spor.ema.europa.eu/v1/lists/100000000004",
              "code": "100000000012",
              "display": "Human use"
            }
          ]
        },
        "status": {
          "coding": [
            {
              "system": "http://spor.ema.europa.eu/v1/lists/200000005003",
              "code": "200000005004",
              "display": "Current"
            }
          ]
        },
        "indication": "Influensaprofylax, speciellt f\u00f6r dem som l\u00f6per \u00f6kad risk f\u00f6r influensarelaterade komplikationer. Influvac Tetra \u00e4r indicerat f\u00f6r vuxna och barn fr\u00e5n 6 m\u00e5naders \u00e5lder. Anv\u00e4ndningen av Influvac Tetra ska bed\u00f6mas p\u00e5 basis av officiella rekommendationer.",
        "legalStatusOfSupply": {
          "coding": [
            {
              "system": "http://spor.ema.europa.eu/v1/lists/100000072051",
              "code": "100000072084",
              "display": "Medicinal product subject to medical prescription"
            }
          ]
        },
        "classification": [
          {
            "coding": [
              {
                "system": "http://spor.ema.europa.eu/v1/lists/100000093533",
                "code": "100000096563",
                "display": "J07BB02"
              }
            ]
          }
        ],
        "name": [
          {
            "productName": "Influvac Tetra Injektionsv\u00e4tska, suspension, f\u00f6rfylld spruta",
            "namePart": [
              {
                "part": "Influvac Tetra",
                "type": {
                  "coding": [
                    {
                      "system": "http://spor.ema.europa.eu/v1/lists/220000000000",
                      "code": "220000000002",
                      "display": "Invented Name Part"
                    }
                  ]
                }
              },
              {
                "part": "Injektionsv\u00e4tska, suspension, f\u00f6rfylld spruta",
                "type": {
                  "coding": [
                    {
                      "system": "http://spor.ema.europa.eu/v1/lists/220000000000",
                      "code": "220000000005",
                      "display": "Pharmaceutical dose form part"
                    }
                  ]
                }
              }
            ],
            "countryLanguage": [
              {
                "country": {
                  "coding": [
                    {
                      "system": "http://spor.ema.europa.eu/v1/lists/100000000002",
                      "code": "100000000535",
                      "display": "Sweden"
                    }
                  ]
                },
                "language": {
                  "coding": [
                    {
                      "system": "http://spor.ema.europa.eu/v1/lists/100000072057",
                      "code": "100000072288",
                      "display": "Swedish"
                    }
                  ]
                }
              }
            ]
          }
        ]
      },
      "request": {
        "method": "PUT",
        "url": "MedicinalProductDefinition/InfluvacTetra-0.5ml-Suspension-SE-AJ-MedicinalProductDefinition"
      },
      "fullUrl": "https://hl7-eu.github.io/unicom-ig/branches/mpd-r4b/MedicinalProductDefinition/InfluvacTetra-0.5ml-Suspension-SE-AJ-MedicinalProductDefinition"
    },
    {
      "resource": {
        "resourceType": "RegulatedAuthorization",
        "id": "InfluvacTetra-0.5ml-Suspension-SE-AJ-RegulatedAuthorization",
        "meta": {
          "versionId": "1",
          "lastUpdated": "2022-08-03T08:52:28.97+00:00"
        },
        "identifier": [
          {
            "system": "http://ema.europa.eu/fhir/MarketingAuthorizationNumber",
            "value": "55200"
          }
        ],
        "subject": [
          {
            "reference": "MedicinalProductDefinition/InfluvacTetra-0.5ml-Suspension-SE-AJ-MedicinalProductDefinition"
          }
        ],
        "type": {
          "coding": [
            {
              "system": "http://spor.ema.europa.eu/v1/lists/220000000060",
              "code": "220000000061",
              "display": "Marketing Authorisation"
            }
          ]
        },
        "region": [
          {
            "coding": [
              {
                "system": "http://spor.ema.europa.eu/v1/lists/100000000002",
                "code": "100000000535",
                "display": "Sweden"
              }
            ]
          }
        ],
        "status": {
          "coding": [
            {
              "system": "http://spor.ema.europa.eu/v1/lists/100000072049",
              "code": "100000072099",
              "display": "Valid"
            }
          ]
        },
        "statusDate": "2017-11-17",
        "holder": {
          "identifier": {
            "system": "https://spor.ema.europa.eu/v1/locations",
            "value": "LOC-100010533"
          },
          "display": "BGP Products AB"
        },
        "case": {
          "type": {
            "coding": [
              {
                "system": "http://ema.europa.eu/fhir/authorisationDateType",
                "code": "dateOfFirstAuthorisation",
                "display": "First Authorisation"
              }
            ]
          },
          "dateDateTime": "2017-11-17"
        }
      },
      "request": {
        "method": "PUT",
        "url": "RegulatedAuthorization/InfluvacTetra-0.5ml-Suspension-SE-AJ-RegulatedAuthorization"
      },
      "fullUrl": "https://hl7-eu.github.io/unicom-ig/branches/mpd-r4b/RegulatedAuthorization/InfluvacTetra-0.5ml-Suspension-SE-AJ-RegulatedAuthorization"
    },
    {
      "resource": {
        "resourceType": "PackagedProductDefinition",
        "id": "InfluvacTetra-0.5ml-Suspension-SE-AJ-PackagedProductDef01",
        "meta": {
          "versionId": "1",
          "lastUpdated": "2022-08-03T08:52:29.004+00:00"
        },
        "extension": [
          {
            "url": "http://ema.europa.eu/fhir/extension/containedItemQuantity",
            "valueQuantity": {
              "value": 10,
              "unit": "Syringe",
              "system": "http://spor.ema.europa.eu/v1/lists/200000000014",
              "code": "200000002150"
            }
          }
        ],
        "packageFor": [
          {
            "reference": "MedicinalProductDefinition/InfluvacTetra-0.5ml-Suspension-SE-AJ-MedicinalProductDefinition"
          }
        ],
        "description": "F\u00f6rfylld spruta, 10 x 0,5 ml, med n\u00e5l",
        "_description": {
          "extension": [
            {
              "url": "http://ema.europa.eu/fhir/extension/language",
              "valueCoding": {
                "system": "http://spor.ema.europa.eu/v1/lists/100000072057",
                "code": "100000072288",
                "display": "Swedish"
              }
            }
          ]
        },
        "marketingStatus": [
          {
            "country": {
              "coding": [
                {
                  "system": "http://spor.ema.europa.eu/v1/lists/100000000002",
                  "code": "100000000535",
                  "display": "Sweden"
                }
              ]
            },
            "status": {
              "coding": [
                {
                  "system": "http://spor.ema.europa.eu/v1/lists/100000072052",
                  "code": "100000072083",
                  "display": "Marketed"
                }
              ]
            }
          }
        ],
        "package": {
          "type": {
            "coding": [
              {
                "system": "https://spor.ema.europa.eu/v1/lists/100000073346",
                "code": "100000073498",
                "display": "Box"
              }
            ]
          },
          "quantity": 1,
          "material": [
            {
              "coding": [
                {
                  "system": "https://spor.ema.europa.eu/v1/lists/200000003199",
                  "code": "200000003529",
                  "display": "Cardboard"
                }
              ]
            }
          ],
          "shelfLifeStorage": [
            {
              "type": {
                "coding": [
                  {
                    "system": "https://spor.ema.europa.eu/v1/lists/100000073343",
                    "code": "100000073403",
                    "display": "Shelf life of the medicinal product as packaged for sale"
                  }
                ]
              },
              "periodDuration": {
                "value": 1,
                "unit": "year",
                "system": "http://spor.ema.europa.eu/v1/lists/100000110633",
                "code": "200000003434"
              },
              "specialPrecautionsForStorage": [
                {
                  "coding": [
                    {
                      "system": "https://spor.ema.europa.eu/v1/lists/100000073344",
                      "code": "100000073414",
                      "display": "Store in a refrigerator (2\u00b0C - 8\u00b0C)"
                    }
                  ]
                },
                {
                  "coding": [
                    {
                      "system": "https://spor.ema.europa.eu/v1/lists/100000073344",
                      "code": "100000073420",
                      "display": "Do not freeze"
                    }
                  ]
                },
                {
                  "coding": [
                    {
                      "system": "https://spor.ema.europa.eu/v1/lists/100000073344",
                      "code": "100000073421",
                      "display": "Store in the original package"
                    }
                  ]
                },
                {
                  "coding": [
                    {
                      "system": "https://spor.ema.europa.eu/v1/lists/100000073344",
                      "code": "100000073426",
                      "display": "in order to protect from light"
                    }
                  ]
                }
              ]
            }
          ],
          "package": [
            {
              "type": {
                "coding": [
                  {
                    "system": "https://spor.ema.europa.eu/v1/lists/100000073346",
                    "code": "100000073544",
                    "display": "Pre-filled syringe"
                  }
                ]
              },
              "quantity": 10,
              "material": [
                {
                  "coding": [
                    {
                      "system": "https://spor.ema.europa.eu/v1/lists/200000003199",
                      "code": "200000003204",
                      "display": "Glass type I"
                    }
                  ]
                }
              ],
              "containedItem": [
                {
                  "item": {
                    "reference": {
                      "reference": "ManufacturedItemDefinition/InfluvacTetra-0.5ml-Suspension-SE-AJ-ManufacturedItemDefinition"
                    }
                  },
                  "amount": {
                    "value": 0.5,
                    "unit": "Millilitre(s)",
                    "system": "http://spor.ema.europa.eu/v1/lists/100000110633",
                    "code": "100000110662"
                  }
                }
              ]
            }
          ]
        }
      },
      "request": {
        "method": "PUT",
        "url": "PackagedProductDefinition/InfluvacTetra-0.5ml-Suspension-SE-AJ-PackagedProductDef01"
      },
      "fullUrl": "https://hl7-eu.github.io/unicom-ig/branches/mpd-r4b/PackagedProductDefinition/InfluvacTetra-0.5ml-Suspension-SE-AJ-PackagedProductDef01"
    },
    {
      "resource": {
        "resourceType": "PackagedProductDefinition",
        "id": "InfluvacTetra-0.5ml-Suspension-SE-AJ-PackagedProductDef02",
        "meta": {
          "versionId": "1",
          "lastUpdated": "2022-08-03T08:52:29.015+00:00"
        },
        "extension": [
          {
            "url": "http://ema.europa.eu/fhir/extension/containedItemQuantity",
            "valueQuantity": {
              "value": 10,
              "unit": "Syringe",
              "system": "http://spor.ema.europa.eu/v1/lists/200000000014",
              "code": "200000002150"
            }
          }
        ],
        "packageFor": [
          {
            "reference": "MedicinalProductDefinition/InfluvacTetra-0.5ml-Suspension-SE-AJ-MedicinalProductDefinition"
          }
        ],
        "description": "F\u00f6rfylld spruta, 10 x 0,5 ml, utan n\u00e5l",
        "_description": {
          "extension": [
            {
              "url": "http://ema.europa.eu/fhir/extension/language",
              "valueCoding": {
                "system": "http://spor.ema.europa.eu/v1/lists/100000072057",
                "code": "100000072288",
                "display": "Swedish"
              }
            }
          ]
        },
        "marketingStatus": [
          {
            "country": {
              "coding": [
                {
                  "system": "http://spor.ema.europa.eu/v1/lists/100000000002",
                  "code": "100000000535",
                  "display": "Sweden"
                }
              ]
            },
            "status": {
              "coding": [
                {
                  "system": "http://spor.ema.europa.eu/v1/lists/100000072052",
                  "code": "100000072083",
                  "display": "Marketed"
                }
              ]
            }
          }
        ],
        "package": {
          "type": {
            "coding": [
              {
                "system": "https://spor.ema.europa.eu/v1/lists/100000073346",
                "code": "100000073498",
                "display": "Box"
              }
            ]
          },
          "quantity": 1,
          "material": [
            {
              "coding": [
                {
                  "system": "https://spor.ema.europa.eu/v1/lists/200000003199",
                  "code": "200000003529",
                  "display": "Cardboard"
                }
              ]
            }
          ],
          "shelfLifeStorage": [
            {
              "type": {
                "coding": [
                  {
                    "system": "https://spor.ema.europa.eu/v1/lists/100000073343",
                    "code": "100000073403",
                    "display": "Shelf life of the medicinal product as packaged for sale"
                  }
                ]
              },
              "periodDuration": {
                "value": 1,
                "unit": "year",
                "system": "http://spor.ema.europa.eu/v1/lists/100000110633",
                "code": "200000003434"
              },
              "specialPrecautionsForStorage": [
                {
                  "coding": [
                    {
                      "system": "https://spor.ema.europa.eu/v1/lists/100000073344",
                      "code": "100000073414",
                      "display": "Store in a refrigerator (2\u00b0C - 8\u00b0C)"
                    }
                  ]
                },
                {
                  "coding": [
                    {
                      "system": "https://spor.ema.europa.eu/v1/lists/100000073344",
                      "code": "100000073420",
                      "display": "Do not freeze"
                    }
                  ]
                },
                {
                  "coding": [
                    {
                      "system": "https://spor.ema.europa.eu/v1/lists/100000073344",
                      "code": "100000073421",
                      "display": "Store in the original package"
                    }
                  ]
                },
                {
                  "coding": [
                    {
                      "system": "https://spor.ema.europa.eu/v1/lists/100000073344",
                      "code": "100000073426",
                      "display": "in order to protect from light"
                    }
                  ]
                }
              ]
            }
          ],
          "package": [
            {
              "type": {
                "coding": [
                  {
                    "system": "https://spor.ema.europa.eu/v1/lists/100000073346",
                    "code": "100000073544",
                    "display": "Pre-filled syringe"
                  }
                ]
              },
              "quantity": 10,
              "material": [
                {
                  "coding": [
                    {
                      "system": "https://spor.ema.europa.eu/v1/lists/200000003199",
                      "code": "200000003204",
                      "display": "Glass type I"
                    }
                  ]
                }
              ],
              "containedItem": [
                {
                  "item": {
                    "reference": {
                      "reference": "ManufacturedItemDefinition/InfluvacTetra-0.5ml-Suspension-SE-AJ-ManufacturedItemDefinition"
                    }
                  },
                  "amount": {
                    "value": 0.5,
                    "unit": "Millilitre(s)",
                    "system": "http://spor.ema.europa.eu/v1/lists/100000110633",
                    "code": "100000110662"
                  }
                }
              ]
            }
          ]
        }
      },
      "request": {
        "method": "PUT",
        "url": "PackagedProductDefinition/InfluvacTetra-0.5ml-Suspension-SE-AJ-PackagedProductDef02"
      },
      "fullUrl": "https://hl7-eu.github.io/unicom-ig/branches/mpd-r4b/PackagedProductDefinition/InfluvacTetra-0.5ml-Suspension-SE-AJ-PackagedProductDef02"
    },
    {
      "resource": {
        "resourceType": "ManufacturedItemDefinition",
        "id": "InfluvacTetra-0.5ml-Suspension-SE-AJ-ManufacturedItemDefinition",
        "meta": {
          "versionId": "1",
          "lastUpdated": "2022-08-03T08:52:29.027+00:00"
        },
        "status": "active",
        "manufacturedDoseForm": {
          "coding": [
            {
              "system": "http://spor.ema.europa.eu/v1/lists/200000000004",
              "code": "100000073864",
              "display": "Suspension for injection"
            }
          ]
        },
        "unitOfPresentation": {
          "coding": [
            {
              "system": "http://spor.ema.europa.eu/v1/lists/200000000014",
              "code": "200000002150",
              "display": "syringe"
            }
          ]
        }
      },
      "request": {
        "method": "PUT",
        "url": "ManufacturedItemDefinition/InfluvacTetra-0.5ml-Suspension-SE-AJ-ManufacturedItemDefinition"
      },
      "fullUrl": "https://hl7-eu.github.io/unicom-ig/branches/mpd-r4b/ManufacturedItemDefinition/InfluvacTetra-0.5ml-Suspension-SE-AJ-ManufacturedItemDefinition"
    },
    {
      "resource": {
        "resourceType": "Ingredient",
        "id": "InfluvacTetra-0.5ml-Suspension-SE-AJ-Ingredient01",
        "meta": {
          "versionId": "1",
          "lastUpdated": "2022-08-03T08:52:29.044+00:00"
        },
        "status": "active",
        "for": [
          {
            "reference": "MedicinalProductDefinition/InfluvacTetra-0.5ml-Suspension-SE-AJ-MedicinalProductDefinition"
          },
          {
            "reference": "ManufacturedItemDefinition/InfluvacTetra-0.5ml-Suspension-SE-AJ-ManufacturedItemDefinition"
          },
          {
            "reference": "AdministrableProductDefinition/InfluvacTetra-0.5ml-Suspension-SE-AJ-AdministrableProductDef"
          }
        ],
        "role": {
          "coding": [
            {
              "system": "http://spor.ema.europa.eu/v1/lists/100000072050",
              "code": "100000072072",
              "display": "Active"
            }
          ]
        },
        "substance": {
          "code": {
            "concept": {
              "coding": [
                {
                  "system": "http://spor.azure-api.net/sms/api/v2/SubstanceDefinition",
                  "code": "300000036060",
                  "display": "A/Cambodia/e0826360/2020 (H3N2)-like strain (A/Cambodia/e0826360/2020 IVR-224)"
                }
              ]
            }
          },
          "strength": [
            {
              "presentationRatio": {
                "numerator": {
                  "value": 15,
                  "_comparator": {
                    "extension": [
                      {
                        "url": "http://ema.europa.eu/fhir/extension/comparator",
                        "valueCoding": {
                          "system": "https://spor.ema.europa.eu/v1/lists/100000000008",
                          "code": "100000000049",
                          "display": "equal to"
                        }
                      }
                    ]
                  },
                  "unit": "microgram(s)",
                  "system": "https://spor.ema.europa.eu/v1/lists/100000110633",
                  "code": "100000110656"
                },
                "denominator": {
                  "value": 1,
                  "unit": "syringe",
                  "system": "https://spor.ema.europa.eu/v1/lists/200000000014",
                  "code": "200000002150"
                }
              },
              "referenceStrength": [
                {
                  "substance": {
                    "concept": {
                      "coding": [
                        {
                          "system": "https://spor.ema.europa.eu/v2/SubstanceDefinition",
                          "code": "300000036060",
                          "display": "A/Cambodia/e0826360/2020 (H3N2)-like strain (A/Cambodia/e0826360/2020 IVR-224)"
                        }
                      ]
                    }
                  },
                  "strengthRatio": {
                    "numerator": {
                      "value": 15,
                      "_comparator": {
                        "extension": [
                          {
                            "url": "http://ema.europa.eu/fhir/extension/comparator",
                            "valueCoding": {
                              "system": "https://spor.ema.europa.eu/v1/lists/100000000008",
                              "code": "100000000049",
                              "display": "equal to"
                            }
                          }
                        ]
                      },
                      "unit": "microgram(s)",
                      "system": "https://spor.ema.europa.eu/v1/lists/100000110633",
                      "code": "100000110656"
                    },
                    "denominator": {
                      "value": 1,
                      "unit": "syringe",
                      "system": "https://spor.ema.europa.eu/v1/lists/200000000014",
                      "code": "200000002150"
                    }
                  }
                }
              ]
            }
          ]
        }
      },
      "request": {
        "method": "PUT",
        "url": "Ingredient/InfluvacTetra-0.5ml-Suspension-SE-AJ-Ingredient01"
      },
      "fullUrl": "https://hl7-eu.github.io/unicom-ig/branches/mpd-r4b/Ingredient/InfluvacTetra-0.5ml-Suspension-SE-AJ-Ingredient01"
    },
    {
      "resource": {
        "resourceType": "Ingredient",
        "id": "InfluvacTetra-0.5ml-Suspension-SE-AJ-Ingredient02",
        "meta": {
          "versionId": "1",
          "lastUpdated": "2022-08-03T08:52:29.058+00:00"
        },
        "status": "active",
        "for": [
          {
            "reference": "MedicinalProductDefinition/InfluvacTetra-0.5ml-Suspension-SE-AJ-MedicinalProductDefinition"
          },
          {
            "reference": "ManufacturedItemDefinition/InfluvacTetra-0.5ml-Suspension-SE-AJ-ManufacturedItemDefinition"
          },
          {
            "reference": "AdministrableProductDefinition/InfluvacTetra-0.5ml-Suspension-SE-AJ-AdministrableProductDef"
          }
        ],
        "role": {
          "coding": [
            {
              "system": "http://spor.ema.europa.eu/v1/lists/100000072050",
              "code": "100000072072",
              "display": "Active"
            }
          ]
        },
        "substance": {
          "code": {
            "concept": {
              "coding": [
                {
                  "system": "http://spor.azure-api.net/sms/api/v2/SubstanceDefinition",
                  "code": "300000034498",
                  "display": "A/Victoria/2570/2019 (H1N1)pdm09-like strain (A/Victoria/2570/2019, IVR-215)"
                }
              ]
            }
          },
          "strength": [
            {
              "presentationRatio": {
                "numerator": {
                  "value": 15,
                  "_comparator": {
                    "extension": [
                      {
                        "url": "http://ema.europa.eu/fhir/extension/comparator",
                        "valueCoding": {
                          "system": "https://spor.ema.europa.eu/v1/lists/100000000008",
                          "code": "100000000049",
                          "display": "equal to"
                        }
                      }
                    ]
                  },
                  "unit": "microgram(s)",
                  "system": "https://spor.ema.europa.eu/v1/lists/100000110633",
                  "code": "100000110656"
                },
                "denominator": {
                  "value": 1,
                  "unit": "syringe",
                  "system": "https://spor.ema.europa.eu/v1/lists/200000000014",
                  "code": "200000002150"
                }
              },
              "referenceStrength": [
                {
                  "substance": {
                    "concept": {
                      "coding": [
                        {
                          "system": "https://spor.ema.europa.eu/v2/SubstanceDefinition",
                          "code": "300000034498",
                          "display": "A/Victoria/2570/2019 (H1N1)pdm09-like strain (A/Victoria/2570/2019, IVR-215)"
                        }
                      ]
                    }
                  },
                  "strengthRatio": {
                    "numerator": {
                      "value": 15,
                      "_comparator": {
                        "extension": [
                          {
                            "url": "http://ema.europa.eu/fhir/extension/comparator",
                            "valueCoding": {
                              "system": "https://spor.ema.europa.eu/v1/lists/100000000008",
                              "code": "100000000049",
                              "display": "equal to"
                            }
                          }
                        ]
                      },
                      "unit": "microgram(s)",
                      "system": "https://spor.ema.europa.eu/v1/lists/100000110633",
                      "code": "100000110656"
                    },
                    "denominator": {
                      "value": 1,
                      "unit": "syringe",
                      "system": "https://spor.ema.europa.eu/v1/lists/200000000014",
                      "code": "200000002150"
                    }
                  }
                }
              ]
            }
          ]
        }
      },
      "request": {
        "method": "PUT",
        "url": "Ingredient/InfluvacTetra-0.5ml-Suspension-SE-AJ-Ingredient02"
      },
      "fullUrl": "https://hl7-eu.github.io/unicom-ig/branches/mpd-r4b/Ingredient/InfluvacTetra-0.5ml-Suspension-SE-AJ-Ingredient02"
    },
    {
      "resource": {
        "resourceType": "Ingredient",
        "id": "InfluvacTetra-0.5ml-Suspension-SE-AJ-Ingredient03",
        "meta": {
          "versionId": "1",
          "lastUpdated": "2022-08-03T08:52:29.072+00:00"
        },
        "status": "active",
        "for": [
          {
            "reference": "MedicinalProductDefinition/InfluvacTetra-0.5ml-Suspension-SE-AJ-MedicinalProductDefinition"
          },
          {
            "reference": "ManufacturedItemDefinition/InfluvacTetra-0.5ml-Suspension-SE-AJ-ManufacturedItemDefinition"
          },
          {
            "reference": "AdministrableProductDefinition/InfluvacTetra-0.5ml-Suspension-SE-AJ-AdministrableProductDef"
          }
        ],
        "role": {
          "coding": [
            {
              "system": "http://spor.ema.europa.eu/v1/lists/100000072050",
              "code": "100000072072",
              "display": "Active"
            }
          ]
        },
        "substance": {
          "code": {
            "concept": {
              "coding": [
                {
                  "system": "http://spor.azure-api.net/sms/api/v2/SubstanceDefinition",
                  "code": "100000164127",
                  "display": "B/PHUKET/3073/2013-LIKE VIRUS (B/PHUKET/3073/2013, WILD TYPE)"
                }
              ]
            }
          },
          "strength": [
            {
              "presentationRatio": {
                "numerator": {
                  "value": 15,
                  "_comparator": {
                    "extension": [
                      {
                        "url": "http://ema.europa.eu/fhir/extension/comparator",
                        "valueCoding": {
                          "system": "https://spor.ema.europa.eu/v1/lists/100000000008",
                          "code": "100000000049",
                          "display": "equal to"
                        }
                      }
                    ]
                  },
                  "unit": "microgram(s)",
                  "system": "https://spor.ema.europa.eu/v1/lists/100000110633",
                  "code": "100000110656"
                },
                "denominator": {
                  "value": 1,
                  "unit": "syringe",
                  "system": "https://spor.ema.europa.eu/v1/lists/200000000014",
                  "code": "200000002150"
                }
              },
              "referenceStrength": [
                {
                  "substance": {
                    "concept": {
                      "coding": [
                        {
                          "system": "https://spor.ema.europa.eu/v2/SubstanceDefinition",
                          "code": "100000164127",
                          "display": "B/PHUKET/3073/2013-LIKE VIRUS (B/PHUKET/3073/2013, WILD TYPE)"
                        }
                      ]
                    }
                  },
                  "strengthRatio": {
                    "numerator": {
                      "value": 15,
                      "_comparator": {
                        "extension": [
                          {
                            "url": "http://ema.europa.eu/fhir/extension/comparator",
                            "valueCoding": {
                              "system": "https://spor.ema.europa.eu/v1/lists/100000000008",
                              "code": "100000000049",
                              "display": "equal to"
                            }
                          }
                        ]
                      },
                      "unit": "microgram(s)",
                      "system": "https://spor.ema.europa.eu/v1/lists/100000110633",
                      "code": "100000110656"
                    },
                    "denominator": {
                      "value": 1,
                      "unit": "syringe",
                      "system": "https://spor.ema.europa.eu/v1/lists/200000000014",
                      "code": "200000002150"
                    }
                  }
                }
              ]
            }
          ]
        }
      },
      "request": {
        "method": "PUT",
        "url": "Ingredient/InfluvacTetra-0.5ml-Suspension-SE-AJ-Ingredient03"
      },
      "fullUrl": "https://hl7-eu.github.io/unicom-ig/branches/mpd-r4b/Ingredient/InfluvacTetra-0.5ml-Suspension-SE-AJ-Ingredient03"
    },
    {
      "resource": {
        "resourceType": "Ingredient",
        "id": "InfluvacTetra-0.5ml-Suspension-SE-AJ-Ingredient04",
        "meta": {
          "versionId": "1",
          "lastUpdated": "2022-08-03T08:52:29.084+00:00"
        },
        "status": "active",
        "for": [
          {
            "reference": "MedicinalProductDefinition/InfluvacTetra-0.5ml-Suspension-SE-AJ-MedicinalProductDefinition"
          },
          {
            "reference": "ManufacturedItemDefinition/InfluvacTetra-0.5ml-Suspension-SE-AJ-ManufacturedItemDefinition"
          },
          {
            "reference": "AdministrableProductDefinition/InfluvacTetra-0.5ml-Suspension-SE-AJ-AdministrableProductDef"
          }
        ],
        "role": {
          "coding": [
            {
              "system": "http://spor.ema.europa.eu/v1/lists/100000072050",
              "code": "100000072072",
              "display": "Active"
            }
          ]
        },
        "substance": {
          "code": {
            "concept": {
              "coding": [
                {
                  "system": "http://spor.azure-api.net/sms/api/v2/SubstanceDefinition",
                  "code": "300000017594",
                  "display": "B/Washington/02/2019 - like virus (B/Washington/02/2019, wild type)"
                }
              ]
            }
          },
          "strength": [
            {
              "presentationRatio": {
                "numerator": {
                  "value": 15,
                  "_comparator": {
                    "extension": [
                      {
                        "url": "http://ema.europa.eu/fhir/extension/comparator",
                        "valueCoding": {
                          "system": "https://spor.ema.europa.eu/v1/lists/100000000008",
                          "code": "100000000049",
                          "display": "equal to"
                        }
                      }
                    ]
                  },
                  "unit": "microgram(s)",
                  "system": "https://spor.ema.europa.eu/v1/lists/100000110633",
                  "code": "100000110656"
                },
                "denominator": {
                  "value": 1,
                  "unit": "syringe",
                  "system": "https://spor.ema.europa.eu/v1/lists/200000000014",
                  "code": "200000002150"
                }
              },
              "referenceStrength": [
                {
                  "substance": {
                    "concept": {
                      "coding": [
                        {
                          "system": "https://spor.ema.europa.eu/v2/SubstanceDefinition",
                          "code": "300000017594",
                          "display": "B/Washington/02/2019 - like virus (B/Washington/02/2019, wild type)"
                        }
                      ]
                    }
                  },
                  "strengthRatio": {
                    "numerator": {
                      "value": 15,
                      "_comparator": {
                        "extension": [
                          {
                            "url": "http://ema.europa.eu/fhir/extension/comparator",
                            "valueCoding": {
                              "system": "https://spor.ema.europa.eu/v1/lists/100000000008",
                              "code": "100000000049",
                              "display": "equal to"
                            }
                          }
                        ]
                      },
                      "unit": "microgram(s)",
                      "system": "https://spor.ema.europa.eu/v1/lists/100000110633",
                      "code": "100000110656"
                    },
                    "denominator": {
                      "value": 1,
                      "unit": "syringe",
                      "system": "https://spor.ema.europa.eu/v1/lists/200000000014",
                      "code": "200000002150"
                    }
                  }
                }
              ]
            }
          ]
        }
      },
      "request": {
        "method": "PUT",
        "url": "Ingredient/InfluvacTetra-0.5ml-Suspension-SE-AJ-Ingredient04"
      },
      "fullUrl": "https://hl7-eu.github.io/unicom-ig/branches/mpd-r4b/Ingredient/InfluvacTetra-0.5ml-Suspension-SE-AJ-Ingredient04"
    }
  ]
}