{
  "id": "Lido4-Fluor25-EyeDropsSol-SE-AJ-MedicinalProductDefinition-BBDL",
  "type": "transaction",
  "resourceType": "Bundle",
  "entry": [
    {
      "resource": {
        "resourceType": "MedicinalProductDefinition",
        "id": "Lido4-Fluor25-EyeDropsSol-SE-AJ-MedicinalProductDefinition",
        "meta": {
          "versionId": "1",
          "lastUpdated": "2022-11-10T17:17:36.623+00:00"
        },
        "extension": [
          {
            "url": "http://ema.europa.eu/fhir/extension/authorisedDoseForm",
            "valueCoding": {
              "system": "http://spor.ema.europa.eu/v1/lists/200000000007",
              "code": "100000073997",
              "display": "Eye drops, solution in single-dose container"
            }
          }
        ],
        "identifier": [
          {
            "system": "http://ema.europa.eu/fhir/mpId",
            "value": "SE-100034011-00010114"
          },
          {
            "system": "http://ema.europa.eu/fhir/eurdId",
            "value": "9213"
          }
        ],
        "domain": {
          "coding": [
            {
              "system": "http://spor.ema.europa.eu/v1/lists/100000000004",
              "code": "100000000012",
              "display": "Human use"
            }
          ]
        },
        "status": {
          "coding": [
            {
              "system": "http://spor.ema.europa.eu/v1/lists/200000005003",
              "code": "200000005004",
              "display": "Current"
            }
          ]
        },
        "indication": "Applanationstonometri. Diagnostisk inf\u00e4rgning med en samtidig tillf\u00f6rsel av ett kortverkande anestetikum.",
        "legalStatusOfSupply": {
          "coding": [
            {
              "system": "http://spor.ema.europa.eu/v1/lists/100000072051",
              "code": "100000072084",
              "display": "Medicinal product subject to medical prescription"
            }
          ]
        },
        "classification": [
          {
            "coding": [
              {
                "system": "http://spor.ema.europa.eu/v1/lists/100000093533",
                "code": "100000098587",
                "display": "S01JA51"
              }
            ]
          }
        ],
        "name": [
          {
            "productName": "Lidokain-Fluorescein Bausch & Lomb 4% + 0,25% \u00d6gondroppar, l\u00f6sning i endosbeh\u00e5llare",
            "namePart": [
              {
                "part": "Lidokain-Fluorescein Bausch & Lomb",
                "type": {
                  "coding": [
                    {
                      "system": "http://spor.ema.europa.eu/v1/lists/220000000000",
                      "code": "220000000003",
                      "display": "Scientific Name Part"
                    }
                  ]
                }
              },
              {
                "part": "4% + 0,25%",
                "type": {
                  "coding": [
                    {
                      "system": "http://spor.ema.europa.eu/v1/lists/220000000000",
                      "code": "220000000004",
                      "display": "Strength part"
                    }
                  ]
                }
              },
              {
                "part": "\u00d6gondroppar, l\u00f6sning i endosbeh\u00e5llare",
                "type": {
                  "coding": [
                    {
                      "system": "http://spor.ema.europa.eu/v1/lists/220000000000",
                      "code": "220000000005",
                      "display": "Pharmaceutical dose form part"
                    }
                  ]
                }
              }
            ],
            "countryLanguage": [
              {
                "country": {
                  "coding": [
                    {
                      "system": "http://spor.ema.europa.eu/v1/lists/100000000002",
                      "code": "100000000535",
                      "display": "Sweden"
                    }
                  ]
                },
                "language": {
                  "coding": [
                    {
                      "system": "http://spor.ema.europa.eu/v1/lists/100000072057",
                      "code": "100000072288",
                      "display": "Swedish"
                    }
                  ]
                }
              }
            ]
          }
        ]
      },
      "request": {
        "method": "PUT",
        "url": "MedicinalProductDefinition/Lido4-Fluor25-EyeDropsSol-SE-AJ-MedicinalProductDefinition"
      },
      "fullUrl": "https://hl7-eu.github.io/unicom-ig/branches/mpd-r4b/MedicinalProductDefinition/Lido4-Fluor25-EyeDropsSol-SE-AJ-MedicinalProductDefinition"
    },
    {
      "resource": {
        "resourceType": "RegulatedAuthorization",
        "id": "Lido4-Fluor25-EyeDropsSol-SE-AJ-RegulatedAuthorization",
        "meta": {
          "versionId": "1",
          "lastUpdated": "2022-11-10T17:17:36.67+00:00"
        },
        "identifier": [
          {
            "system": "http://ema.europa.eu/fhir/MarketingAuthorizationNumber",
            "value": "10114"
          }
        ],
        "subject": [
          {
            "reference": "MedicinalProductDefinition/Lido4-Fluor25-EyeDropsSol-SE-AJ-MedicinalProductDefinition"
          }
        ],
        "type": {
          "coding": [
            {
              "system": "http://spor.ema.europa.eu/v1/lists/220000000060",
              "code": "220000000061",
              "display": "Marketing Authorisation"
            }
          ]
        },
        "region": [
          {
            "coding": [
              {
                "system": "http://spor.ema.europa.eu/v1/lists/100000000002",
                "code": "100000000535",
                "display": "Sweden"
              }
            ]
          }
        ],
        "status": {
          "coding": [
            {
              "system": "http://spor.ema.europa.eu/v1/lists/100000072049",
              "code": "100000072099",
              "display": "Valid"
            }
          ]
        },
        "statusDate": "1984-09-07",
        "holder": {
          "identifier": {
            "system": "https://spor.ema.europa.eu/v1/locations",
            "value": "LOC-100053733"
          },
          "display": "Bausch + Lomb Ireland Limited"
        },
        "case": {
          "type": {
            "coding": [
              {
                "system": "http://ema.europa.eu/fhir/authorisationDateType",
                "code": "dateOfFirstAuthorisation",
                "display": "First Authorisation"
              }
            ]
          },
          "dateDateTime": "1984-09-07"
        }
      },
      "request": {
        "method": "PUT",
        "url": "RegulatedAuthorization/Lido4-Fluor25-EyeDropsSol-SE-AJ-RegulatedAuthorization"
      },
      "fullUrl": "https://hl7-eu.github.io/unicom-ig/branches/mpd-r4b/RegulatedAuthorization/Lido4-Fluor25-EyeDropsSol-SE-AJ-RegulatedAuthorization"
    },
    {
      "resource": {
        "resourceType": "PackagedProductDefinition",
        "id": "Lido4-Fluor25-EyeDropsSol-SE-AJ-PackagedProductDefinition",
        "meta": {
          "versionId": "1",
          "lastUpdated": "2022-11-10T17:17:36.697+00:00"
        },
        "extension": [
          {
            "url": "http://ema.europa.eu/fhir/extension/containedItemQuantity",
            "valueQuantity": {
              "value": 20,
              "unit": "Container",
              "system": "http://spor.ema.europa.eu/v1/lists/200000000014",
              "code": "200000002116"
            }
          }
        ],
        "packageFor": [
          {
            "reference": "MedicinalProductDefinition/Lido4-Fluor25-EyeDropsSol-SE-AJ-MedicinalProductDefinition"
          }
        ],
        "description": "Endosbeh\u00e5llare (Minims), 20 x 0,5 ml",
        "_description": {
          "extension": [
            {
              "url": "http://ema.europa.eu/fhir/extension/language",
              "valueCoding": {
                "system": "http://spor.ema.europa.eu/v1/lists/100000072057",
                "code": "100000072288",
                "display": "Swedish"
              }
            }
          ]
        },
        "marketingStatus": [
          {
            "country": {
              "coding": [
                {
                  "system": "http://spor.ema.europa.eu/v1/lists/100000000002",
                  "code": "100000000535",
                  "display": "Sweden"
                }
              ]
            },
            "status": {
              "coding": [
                {
                  "system": "http://spor.ema.europa.eu/v1/lists/100000072052",
                  "code": "100000072083",
                  "display": "Marketed"
                }
              ]
            }
          }
        ],
        "package": {
          "type": {
            "coding": [
              {
                "system": "https://spor.ema.europa.eu/v1/lists/100000073346",
                "code": "100000073498",
                "display": "Box"
              }
            ]
          },
          "quantity": 1,
          "material": [
            {
              "coding": [
                {
                  "system": "https://spor.ema.europa.eu/v1/lists/200000003199",
                  "code": "200000003529",
                  "display": "Cardboard"
                }
              ]
            }
          ],
          "shelfLifeStorage": [
            {
              "type": {
                "coding": [
                  {
                    "system": "https://spor.ema.europa.eu/v1/lists/100000073343",
                    "code": "100000073403",
                    "display": "Shelf life of the medicinal product as packaged for sale"
                  }
                ]
              },
              "periodDuration": {
                "value": 15,
                "unit": "month",
                "system": "http://spor.ema.europa.eu/v1/lists/100000110633",
                "code": "200000003433"
              },
              "specialPrecautionsForStorage": [
                {
                  "coding": [
                    {
                      "system": "https://spor.ema.europa.eu/v1/lists/100000073344",
                      "code": "100000073410",
                      "display": "Do not store above 25 \u00b0C"
                    }
                  ]
                },
                {
                  "coding": [
                    {
                      "system": "https://spor.ema.europa.eu/v1/lists/100000073344",
                      "code": "100000073420",
                      "display": "Do not freeze"
                    }
                  ]
                },
                {
                  "coding": [
                    {
                      "system": "https://spor.ema.europa.eu/v1/lists/100000073344",
                      "code": "100000073421",
                      "display": "Store in the original package"
                    }
                  ]
                },
                {
                  "coding": [
                    {
                      "system": "https://spor.ema.europa.eu/v1/lists/100000073344",
                      "code": "100000073426",
                      "display": "in order to protect from light"
                    }
                  ]
                }
              ]
            }
          ],
          "package": [
            {
              "type": {
                "coding": [
                  {
                    "system": "https://spor.ema.europa.eu/v1/lists/100000073346",
                    "code": "100000073547",
                    "display": "Sachet"
                  }
                ]
              },
              "quantity": 20,
              "material": [
                {
                  "coding": [
                    {
                      "system": "https://spor.ema.europa.eu/v1/lists/200000003199",
                      "code": "200000003207",
                      "display": "Paper"
                    }
                  ]
                },
                {
                  "coding": [
                    {
                      "system": "https://spor.ema.europa.eu/v1/lists/200000003199",
                      "code": "200000003219",
                      "display": "PolyPropylene"
                    }
                  ]
                }
              ],
              "package": [
                {
                  "type": {
                    "coding": [
                      {
                        "system": "https://spor.ema.europa.eu/v1/lists/100000073346",
                        "code": "100000073550",
                        "display": "Single-dose container"
                      }
                    ]
                  },
                  "quantity": 1,
                  "material": [
                    {
                      "coding": [
                        {
                          "system": "https://spor.ema.europa.eu/v1/lists/200000003199",
                          "code": "200000003219",
                          "display": "PolyPropylene"
                        }
                      ]
                    }
                  ],
                  "containedItem": [
                    {
                      "item": {
                        "reference": {
                          "reference": "ManufacturedItemDefinition/Lido4-Fluor25-EyeDropsSol-SE-AJ-ManufacturedItemDefinition"
                        }
                      },
                      "amount": {
                        "value": 0.5,
                        "unit": "millilitre(s)",
                        "system": "http://spor.ema.europa.eu/v1/lists/100000110633",
                        "code": "100000110662"
                      }
                    }
                  ]
                }
              ]
            }
          ]
        }
      },
      "request": {
        "method": "PUT",
        "url": "PackagedProductDefinition/Lido4-Fluor25-EyeDropsSol-SE-AJ-PackagedProductDefinition"
      },
      "fullUrl": "https://hl7-eu.github.io/unicom-ig/branches/mpd-r4b/PackagedProductDefinition/Lido4-Fluor25-EyeDropsSol-SE-AJ-PackagedProductDefinition"
    },
    {
      "resource": {
        "resourceType": "ManufacturedItemDefinition",
        "id": "Lido4-Fluor25-EyeDropsSol-SE-AJ-ManufacturedItemDefinition",
        "meta": {
          "versionId": "1",
          "lastUpdated": "2022-11-10T17:17:36.711+00:00"
        },
        "status": "active",
        "manufacturedDoseForm": {
          "coding": [
            {
              "system": "http://spor.ema.europa.eu/v1/lists/200000000004",
              "code": "100000073759",
              "display": "Eye drops, solution"
            }
          ]
        },
        "unitOfPresentation": {
          "coding": [
            {
              "system": "http://spor.ema.europa.eu/v1/lists/200000000014",
              "code": "200000002116",
              "display": "Container"
            }
          ]
        }
      },
      "request": {
        "method": "PUT",
        "url": "ManufacturedItemDefinition/Lido4-Fluor25-EyeDropsSol-SE-AJ-ManufacturedItemDefinition"
      },
      "fullUrl": "https://hl7-eu.github.io/unicom-ig/branches/mpd-r4b/ManufacturedItemDefinition/Lido4-Fluor25-EyeDropsSol-SE-AJ-ManufacturedItemDefinition"
    },
    {
      "resource": {
        "resourceType": "Ingredient",
        "id": "Lido4-Fluor25-EyeDropsSol-SE-AJ-Ingredient01",
        "meta": {
          "versionId": "1",
          "lastUpdated": "2022-11-10T17:17:36.723+00:00"
        },
        "status": "active",
        "for": [
          {
            "reference": "MedicinalProductDefinition/Lido4-Fluor25-EyeDropsSol-SE-AJ-MedicinalProductDefinition"
          },
          {
            "reference": "ManufacturedItemDefinition/Lido4-Fluor25-EyeDropsSol-SE-AJ-ManufacturedItemDefinition"
          },
          {
            "reference": "AdministrableProductDefinitionLido4-Fluor25-EyeDropsSol-SE-AJ-AdministrableProductDefinition"
          }
        ],
        "role": {
          "coding": [
            {
              "system": "http://spor.ema.europa.eu/v1/lists/100000072050",
              "code": "100000072072",
              "display": "Active"
            }
          ]
        },
        "substance": {
          "code": {
            "concept": {
              "coding": [
                {
                  "system": "http://spor.azure-api.net/sms/api/v2/SubstanceDefinition",
                  "code": "100000139489",
                  "display": "Lidocaine hydrochloride"
                }
              ]
            }
          },
          "strength": [
            {
              "concentrationRatio": {
                "numerator": {
                  "value": 40,
                  "_comparator": {
                    "extension": [
                      {
                        "url": "http://ema.europa.eu/fhir/extension/comparator",
                        "valueCoding": {
                          "system": "https://spor.ema.europa.eu/v1/lists/100000000008",
                          "code": "100000000049",
                          "display": "equal to"
                        }
                      }
                    ]
                  },
                  "unit": "milligram(s)",
                  "system": "http://spor.ema.europa.eu/v1/lists/100000110633",
                  "code": "100000110655"
                },
                "denominator": {
                  "value": 1,
                  "unit": "millilitre(s)",
                  "system": "http://spor.ema.europa.eu/v1/lists/100000110633",
                  "code": "100000110662"
                }
              },
              "referenceStrength": [
                {
                  "substance": {
                    "concept": {
                      "coding": [
                        {
                          "system": "https://spor.ema.europa.eu/v2/SubstanceDefinition",
                          "code": "100000091713",
                          "display": "Lidocaine"
                        }
                      ]
                    }
                  },
                  "strengthRatio": {
                    "numerator": {
                      "value": 34.6,
                      "_comparator": {
                        "extension": [
                          {
                            "url": "http://ema.europa.eu/fhir/extension/comparator",
                            "valueCoding": {
                              "system": "https://spor.ema.europa.eu/v1/lists/100000000008",
                              "code": "100000000049",
                              "display": "equal to"
                            }
                          }
                        ]
                      },
                      "unit": "milligram(s)",
                      "system": "https://spor.ema.europa.eu/v1/lists/100000110633",
                      "code": "100000110655"
                    },
                    "denominator": {
                      "value": 1,
                      "unit": "millilitre(s)",
                      "system": "https://spor.ema.europa.eu/v1/lists/100000110633",
                      "code": "100000110662"
                    }
                  }
                }
              ]
            }
          ]
        }
      },
      "request": {
        "method": "PUT",
        "url": "Ingredient/Lido4-Fluor25-EyeDropsSol-SE-AJ-Ingredient01"
      },
      "fullUrl": "https://hl7-eu.github.io/unicom-ig/branches/mpd-r4b/Ingredient/Lido4-Fluor25-EyeDropsSol-SE-AJ-Ingredient01"
    },
    {
      "resource": {
        "resourceType": "Ingredient",
        "id": "Lido4-Fluor25-EyeDropsSol-SE-AJ-Ingredient02",
        "meta": {
          "versionId": "1",
          "lastUpdated": "2022-11-10T17:17:36.738+00:00"
        },
        "status": "active",
        "for": [
          {
            "reference": "MedicinalProductDefinition/Lido4-Fluor25-EyeDropsSol-SE-AJ-MedicinalProductDefinition"
          },
          {
            "reference": "ManufacturedItemDefinition/Lido4-Fluor25-EyeDropsSol-SE-AJ-ManufacturedItemDefinition"
          },
          {
            "reference": "AdministrableProductDefinitionLido4-Fluor25-EyeDropsSol-SE-AJ-AdministrableProductDefinition"
          }
        ],
        "role": {
          "coding": [
            {
              "system": "http://spor.ema.europa.eu/v1/lists/100000072050",
              "code": "100000072072",
              "display": "Active"
            }
          ]
        },
        "substance": {
          "code": {
            "concept": {
              "coding": [
                {
                  "system": "http://spor.azure-api.net/sms/api/v2/SubstanceDefinition",
                  "code": "100000089870",
                  "display": "Fluorescein sodium"
                }
              ]
            }
          },
          "strength": [
            {
              "concentrationRatio": {
                "numerator": {
                  "value": 2.5,
                  "_comparator": {
                    "extension": [
                      {
                        "url": "http://ema.europa.eu/fhir/extension/comparator",
                        "valueCoding": {
                          "system": "https://spor.ema.europa.eu/v1/lists/100000000008",
                          "code": "100000000049",
                          "display": "equal to"
                        }
                      }
                    ]
                  },
                  "unit": "milligram(s)",
                  "system": "http://spor.ema.europa.eu/v1/lists/100000110633",
                  "code": "100000110655"
                },
                "denominator": {
                  "value": 1,
                  "unit": "millilitre(s)",
                  "system": "http://spor.ema.europa.eu/v1/lists/100000110633",
                  "code": "100000110662"
                }
              },
              "referenceStrength": [
                {
                  "substance": {
                    "concept": {
                      "coding": [
                        {
                          "system": "https://spor.ema.europa.eu/v2/SubstanceDefinition",
                          "code": "100000092805",
                          "display": "Fluorescein"
                        }
                      ]
                    }
                  },
                  "strengthRatio": {
                    "numerator": {
                      "value": 2.21,
                      "_comparator": {
                        "extension": [
                          {
                            "url": "http://ema.europa.eu/fhir/extension/comparator",
                            "valueCoding": {
                              "system": "https://spor.ema.europa.eu/v1/lists/100000000008",
                              "code": "100000000049",
                              "display": "equal to"
                            }
                          }
                        ]
                      },
                      "unit": "milligram(s)",
                      "system": "https://spor.ema.europa.eu/v1/lists/100000110633",
                      "code": "100000110655"
                    },
                    "denominator": {
                      "value": 1,
                      "unit": "millilitre(s)",
                      "system": "https://spor.ema.europa.eu/v1/lists/100000110633",
                      "code": "100000110662"
                    }
                  }
                }
              ]
            }
          ]
        }
      },
      "request": {
        "method": "PUT",
        "url": "Ingredient/Lido4-Fluor25-EyeDropsSol-SE-AJ-Ingredient02"
      },
      "fullUrl": "https://hl7-eu.github.io/unicom-ig/branches/mpd-r4b/Ingredient/Lido4-Fluor25-EyeDropsSol-SE-AJ-Ingredient02"
    }
  ]
}