{
  "id": "LidokainAgu-10mgml-InjSol-SE-AJ-MedicinalProductDefinition-BBDL",
  "type": "transaction",
  "resourceType": "Bundle",
  "entry": [
    {
      "resource": {
        "resourceType": "MedicinalProductDefinition",
        "id": "LidokainAgu-10mgml-InjSol-SE-AJ-MedicinalProductDefinition",
        "meta": {
          "versionId": "1",
          "lastUpdated": "2022-11-10T17:10:05.755+00:00"
        },
        "extension": [
          {
            "url": "http://ema.europa.eu/fhir/extension/authorisedDoseForm",
            "valueCoding": {
              "system": "http://spor.ema.europa.eu/v1/lists/200000000007",
              "code": "100000074047",
              "display": "Solution for injection in pre-filled syringe"
            }
          }
        ],
        "identifier": [
          {
            "system": "http://ema.europa.eu/fhir/mpId",
            "value": "SE-100000357-00056122"
          },
          {
            "system": "http://ema.europa.eu/fhir/eurdId",
            "value": "10934"
          }
        ],
        "domain": {
          "coding": [
            {
              "system": "http://spor.ema.europa.eu/v1/lists/100000000004",
              "code": "100000000012",
              "display": "Human use"
            }
          ]
        },
        "status": {
          "coding": [
            {
              "system": "http://spor.ema.europa.eu/v1/lists/200000005003",
              "code": "200000005004",
              "display": "Current"
            }
          ]
        },
        "indication": "Lidokain Aguettant \u00e4r avsett f\u00f6r infiltrationsanestesi och perifer nervblockad. Lidokain Aguettant 10 mg/ml \u00e4r avsett f\u00f6r vuxna och barn \u00f6ver 2 \u00e5r. Lidokain Aguettant 20 mg/ml \u00e4r avsett f\u00f6r vuxna.",
        "legalStatusOfSupply": {
          "coding": [
            {
              "system": "http://spor.ema.europa.eu/v1/lists/100000072051",
              "code": "100000072084",
              "display": "Medicinal product subject to medical prescription"
            }
          ]
        },
        "classification": [
          {
            "coding": [
              {
                "system": "http://spor.ema.europa.eu/v1/lists/100000093533",
                "code": "100000097196",
                "display": "N01BB02"
              }
            ]
          }
        ],
        "name": [
          {
            "productName": "Lidokain Aguettant 10 mg/ml Injektionsv\u00e4tska, l\u00f6sning i f\u00f6rfylld spruta",
            "namePart": [
              {
                "part": "Lidokain Aguettant",
                "type": {
                  "coding": [
                    {
                      "system": "http://spor.ema.europa.eu/v1/lists/220000000000",
                      "code": "220000000003",
                      "display": "Scientific Name Part"
                    }
                  ]
                }
              },
              {
                "part": "10 mg/ml",
                "type": {
                  "coding": [
                    {
                      "system": "http://spor.ema.europa.eu/v1/lists/220000000000",
                      "code": "220000000004",
                      "display": "Strength part"
                    }
                  ]
                }
              },
              {
                "part": "Injektionsv\u00e4tska, l\u00f6sning i f\u00f6rfylld spruta",
                "type": {
                  "coding": [
                    {
                      "system": "http://spor.ema.europa.eu/v1/lists/220000000000",
                      "code": "220000000005",
                      "display": "Pharmaceutical dose form part"
                    }
                  ]
                }
              }
            ],
            "countryLanguage": [
              {
                "country": {
                  "coding": [
                    {
                      "system": "http://spor.ema.europa.eu/v1/lists/100000000002",
                      "code": "100000000535",
                      "display": "Sweden"
                    }
                  ]
                },
                "language": {
                  "coding": [
                    {
                      "system": "http://spor.ema.europa.eu/v1/lists/100000072057",
                      "code": "100000072288",
                      "display": "Swedish"
                    }
                  ]
                }
              }
            ]
          }
        ]
      },
      "request": {
        "method": "PUT",
        "url": "MedicinalProductDefinition/LidokainAgu-10mgml-InjSol-SE-AJ-MedicinalProductDefinition"
      },
      "fullUrl": "https://hl7-eu.github.io/unicom-ig/branches/mpd-r4b/MedicinalProductDefinition/LidokainAgu-10mgml-InjSol-SE-AJ-MedicinalProductDefinition"
    },
    {
      "resource": {
        "resourceType": "RegulatedAuthorization",
        "id": "LidokainAgu-10mgml-InjSol-SE-AJ-RegulatedAuthorization",
        "meta": {
          "versionId": "1",
          "lastUpdated": "2022-11-10T17:10:05.775+00:00"
        },
        "identifier": [
          {
            "system": "http://ema.europa.eu/fhir/MarketingAuthorizationNumber",
            "value": "56122"
          }
        ],
        "subject": [
          {
            "reference": "MedicinalProductDefinition/LidokainAgu-10mgml-InjSol-SE-AJ-MedicinalProductDefinition"
          }
        ],
        "type": {
          "coding": [
            {
              "system": "http://spor.ema.europa.eu/v1/lists/220000000060",
              "code": "220000000061",
              "display": "Marketing Authorisation"
            }
          ]
        },
        "region": [
          {
            "coding": [
              {
                "system": "http://spor.ema.europa.eu/v1/lists/100000000002",
                "code": "100000000535",
                "display": "Sweden"
              }
            ]
          }
        ],
        "status": {
          "coding": [
            {
              "system": "http://spor.ema.europa.eu/v1/lists/100000072049",
              "code": "100000072099",
              "display": "Valid"
            }
          ]
        },
        "statusDate": "2018-08-03",
        "holder": {
          "identifier": {
            "system": "https://spor.ema.europa.eu/v1/locations",
            "value": "LOC-100000666"
          },
          "display": "Laboratoire Aguettant"
        },
        "case": {
          "type": {
            "coding": [
              {
                "system": "http://ema.europa.eu/fhir/authorisationDateType",
                "code": "dateOfFirstAuthorisation",
                "display": "First Authorisation"
              }
            ]
          },
          "dateDateTime": "2018-08-03"
        }
      },
      "request": {
        "method": "PUT",
        "url": "RegulatedAuthorization/LidokainAgu-10mgml-InjSol-SE-AJ-RegulatedAuthorization"
      },
      "fullUrl": "https://hl7-eu.github.io/unicom-ig/branches/mpd-r4b/RegulatedAuthorization/LidokainAgu-10mgml-InjSol-SE-AJ-RegulatedAuthorization"
    },
    {
      "resource": {
        "resourceType": "PackagedProductDefinition",
        "id": "LidokainAgu-10mgml-InjSol-SE-AJ-PackagedProductDefinition",
        "meta": {
          "versionId": "1",
          "lastUpdated": "2022-11-10T17:10:05.859+00:00"
        },
        "extension": [
          {
            "url": "http://ema.europa.eu/fhir/extension/containedItemQuantity",
            "valueQuantity": {
              "value": 10,
              "unit": "Syringe",
              "system": "http://spor.ema.europa.eu/v1/lists/200000000014",
              "code": "200000002150"
            }
          }
        ],
        "packageFor": [
          {
            "reference": "MedicinalProductDefinition/LidokainAgu-10mgml-InjSol-SE-AJ-MedicinalProductDefinition"
          }
        ],
        "description": "F\u00f6rfylld spruta, 10 x 10 ml",
        "_description": {
          "extension": [
            {
              "url": "http://ema.europa.eu/fhir/extension/language",
              "valueCoding": {
                "system": "http://spor.ema.europa.eu/v1/lists/100000072057",
                "code": "100000072288",
                "display": "Swedish"
              }
            }
          ]
        },
        "marketingStatus": [
          {
            "country": {
              "coding": [
                {
                  "system": "http://spor.ema.europa.eu/v1/lists/100000000002",
                  "code": "100000000535",
                  "display": "Sweden"
                }
              ]
            },
            "status": {
              "coding": [
                {
                  "system": "http://spor.ema.europa.eu/v1/lists/100000072052",
                  "code": "100000072083",
                  "display": "Marketed"
                }
              ]
            }
          }
        ],
        "package": {
          "type": {
            "coding": [
              {
                "system": "https://spor.ema.europa.eu/v1/lists/100000073346",
                "code": "100000073498",
                "display": "Box"
              }
            ]
          },
          "quantity": 1,
          "material": [
            {
              "coding": [
                {
                  "system": "https://spor.ema.europa.eu/v1/lists/200000003199",
                  "code": "200000003529",
                  "display": "Cardboard"
                }
              ]
            }
          ],
          "shelfLifeStorage": [
            {
              "type": {
                "coding": [
                  {
                    "system": "https://spor.ema.europa.eu/v1/lists/100000073343",
                    "code": "100000073403",
                    "display": "Shelf life of the medicinal product as packaged for sale"
                  }
                ]
              },
              "periodDuration": {
                "value": 3,
                "unit": "Year",
                "system": "http://spor.ema.europa.eu/v1/lists/100000110633",
                "code": "200000003434"
              },
              "specialPrecautionsForStorage": [
                {
                  "coding": [
                    {
                      "system": "https://spor.ema.europa.eu/v1/lists/100000073344",
                      "code": "100000073420",
                      "display": "Do not freeze"
                    }
                  ]
                },
                {
                  "coding": [
                    {
                      "system": "https://spor.ema.europa.eu/v1/lists/100000073344",
                      "code": "100000073429",
                      "display": "Store in the original container"
                    }
                  ]
                }
              ]
            }
          ],
          "package": [
            {
              "type": {
                "coding": [
                  {
                    "system": "https://spor.ema.europa.eu/v1/lists/100000073346",
                    "code": "100000174066",
                    "display": "Unit-dose blister"
                  }
                ]
              },
              "quantity": 10,
              "material": [
                {
                  "coding": [
                    {
                      "system": "https://spor.ema.europa.eu/v1/lists/200000003199",
                      "code": "200000003219",
                      "display": "PolyPropylene"
                    }
                  ]
                }
              ],
              "package": [
                {
                  "type": {
                    "coding": [
                      {
                        "system": "https://spor.ema.europa.eu/v1/lists/100000073346",
                        "code": "100000073544",
                        "display": "Pre-filled syringe"
                      }
                    ]
                  },
                  "quantity": 1,
                  "material": [
                    {
                      "coding": [
                        {
                          "system": "https://spor.ema.europa.eu/v1/lists/200000003199",
                          "code": "200000003219",
                          "display": "PolyPropylene"
                        }
                      ]
                    }
                  ],
                  "containedItem": [
                    {
                      "item": {
                        "reference": {
                          "reference": "ManufacturedItemDefinition/LidokainAgu-10mgml-InjSol-SE-AJ-ManufacturedItemDefinition"
                        }
                      },
                      "amount": {
                        "value": 10,
                        "unit": "millilitre(s)",
                        "system": "http://spor.ema.europa.eu/v1/lists/100000110633",
                        "code": "100000110662"
                      }
                    }
                  ]
                }
              ]
            }
          ]
        }
      },
      "request": {
        "method": "PUT",
        "url": "PackagedProductDefinition/LidokainAgu-10mgml-InjSol-SE-AJ-PackagedProductDefinition"
      },
      "fullUrl": "https://hl7-eu.github.io/unicom-ig/branches/mpd-r4b/PackagedProductDefinition/LidokainAgu-10mgml-InjSol-SE-AJ-PackagedProductDefinition"
    },
    {
      "resource": {
        "resourceType": "ManufacturedItemDefinition",
        "id": "LidokainAgu-10mgml-InjSol-SE-AJ-ManufacturedItemDefinition",
        "meta": {
          "versionId": "1",
          "lastUpdated": "2022-11-10T17:10:05.871+00:00"
        },
        "status": "active",
        "manufacturedDoseForm": {
          "coding": [
            {
              "system": "http://spor.ema.europa.eu/v1/lists/200000000004",
              "code": "100000073863",
              "display": "Solution for injection"
            }
          ]
        },
        "unitOfPresentation": {
          "coding": [
            {
              "system": "http://spor.ema.europa.eu/v1/lists/200000000014",
              "code": "200000002150",
              "display": "Syringe"
            }
          ]
        }
      },
      "request": {
        "method": "PUT",
        "url": "ManufacturedItemDefinition/LidokainAgu-10mgml-InjSol-SE-AJ-ManufacturedItemDefinition"
      },
      "fullUrl": "https://hl7-eu.github.io/unicom-ig/branches/mpd-r4b/ManufacturedItemDefinition/LidokainAgu-10mgml-InjSol-SE-AJ-ManufacturedItemDefinition"
    },
    {
      "resource": {
        "resourceType": "Ingredient",
        "id": "LidokainAgu-10mgml-InjSol-SE-AJ-Ingredient",
        "meta": {
          "versionId": "1",
          "lastUpdated": "2022-11-10T17:10:05.941+00:00"
        },
        "status": "active",
        "for": [
          {
            "reference": "MedicinalProductDefinition/LidokainAgu-10mgml-InjSol-SE-AJ-MedicinalProductDefinition"
          },
          {
            "reference": "ManufacturedItemDefinition/LidokainAgu-10mgml-InjSol-SE-AJ-ManufacturedItemDefinition"
          },
          {
            "reference": "AdministrableProductDefinitionLidokainAgu-10mgml-InjSol-SE-AJ-AdministrableProductDefinition"
          }
        ],
        "role": {
          "coding": [
            {
              "system": "http://spor.ema.europa.eu/v1/lists/100000072050",
              "code": "100000072072",
              "display": "Active"
            }
          ]
        },
        "substance": {
          "code": {
            "concept": {
              "coding": [
                {
                  "system": "http://spor.azure-api.net/sms/api/v2/SubstanceDefinition",
                  "code": "100000090563",
                  "display": "Lidocaine hydrochloride monohydrate"
                }
              ]
            }
          },
          "strength": [
            {
              "concentrationRatio": {
                "numerator": {
                  "value": 10.67,
                  "_comparator": {
                    "extension": [
                      {
                        "url": "http://ema.europa.eu/fhir/extension/comparator",
                        "valueCoding": {
                          "system": "https://spor.ema.europa.eu/v1/lists/100000000008",
                          "code": "100000000049",
                          "display": "equal to"
                        }
                      }
                    ]
                  },
                  "unit": "milligram(s)",
                  "system": "http://spor.ema.europa.eu/v1/lists/100000110633",
                  "code": "100000110655"
                },
                "denominator": {
                  "value": 1,
                  "unit": "millilitre(s)",
                  "system": "http://spor.ema.europa.eu/v1/lists/100000110633",
                  "code": "100000110662"
                }
              },
              "referenceStrength": [
                {
                  "substance": {
                    "concept": {
                      "coding": [
                        {
                          "system": "https://spor.ema.europa.eu/v2/SubstanceDefinition",
                          "code": "100000091713",
                          "display": "Lidocaine"
                        }
                      ]
                    }
                  },
                  "strengthRatio": {
                    "numerator": {
                      "value": 8.65,
                      "_comparator": {
                        "extension": [
                          {
                            "url": "http://ema.europa.eu/fhir/extension/comparator",
                            "valueCoding": {
                              "system": "https://spor.ema.europa.eu/v1/lists/100000000008",
                              "code": "100000000049",
                              "display": "equal to"
                            }
                          }
                        ]
                      },
                      "unit": "milligarm(s)",
                      "system": "https://spor.ema.europa.eu/v1/lists/100000110633",
                      "code": "100000110655"
                    },
                    "denominator": {
                      "value": 1,
                      "unit": "millilitre(s)",
                      "system": "https://spor.ema.europa.eu/v1/lists/100000110633",
                      "code": "100000110662"
                    }
                  }
                },
                {
                  "substance": {
                    "concept": {
                      "coding": [
                        {
                          "system": "https://spor.ema.europa.eu/v2/SubstanceDefinition",
                          "code": "100000139489",
                          "display": "Lidocaine hydrochloride"
                        }
                      ]
                    }
                  },
                  "strengthRatio": {
                    "numerator": {
                      "value": 10,
                      "_comparator": {
                        "extension": [
                          {
                            "url": "http://ema.europa.eu/fhir/extension/comparator",
                            "valueCoding": {
                              "system": "https://spor.ema.europa.eu/v1/lists/100000000008",
                              "code": "100000000049",
                              "display": "equal to"
                            }
                          }
                        ]
                      },
                      "unit": "milligram(s)",
                      "system": "https://spor.ema.europa.eu/v1/lists/100000110633",
                      "code": "100000110655"
                    },
                    "denominator": {
                      "value": 1,
                      "unit": "millilitre(s)",
                      "system": "https://spor.ema.europa.eu/v1/lists/100000110633",
                      "code": "100000110662"
                    }
                  }
                }
              ]
            }
          ]
        }
      },
      "request": {
        "method": "PUT",
        "url": "Ingredient/LidokainAgu-10mgml-InjSol-SE-AJ-Ingredient"
      },
      "fullUrl": "https://hl7-eu.github.io/unicom-ig/branches/mpd-r4b/Ingredient/LidokainAgu-10mgml-InjSol-SE-AJ-Ingredient"
    }
  ]
}