{
  "id": "Oxascand-10mg-Tablet-SE-IS-MedicinalProductDefinition-BBDL",
  "type": "transaction",
  "resourceType": "Bundle",
  "entry": [
    {
      "resource": {
        "resourceType": "MedicinalProductDefinition",
        "id": "Oxascand-10mg-Tablet-SE-IS-MedicinalProductDefinition",
        "meta": {
          "versionId": "1",
          "lastUpdated": "2022-10-10T06:37:54.336+00:00"
        },
        "extension": [
          {
            "url": "http://ema.europa.eu/fhir/extension/authorisedDoseForm",
            "valueCoding": {
              "system": "http://spor.ema.europa.eu/v1/lists/200000000004",
              "code": "100000073664",
              "display": "Tablet"
            }
          }
        ],
        "identifier": [
          {
            "system": "http://ema.europa.eu/fhir/mpId",
            "value": "SE-100001594-00010743"
          },
          {
            "system": "http://ema.europa.eu/fhir/eurdId",
            "value": "2234"
          }
        ],
        "domain": {
          "coding": [
            {
              "system": "http://spor.ema.europa.eu/v1/lists/100000000004",
              "code": "100000000012",
              "display": "Human use"
            }
          ]
        },
        "status": {
          "coding": [
            {
              "system": "http://spor.ema.europa.eu/v1/lists/200000005003",
              "code": "200000005004",
              "display": "Current"
            }
          ]
        },
        "indication": "Oxascand p\u00e5verkar de vid \u00e5ngestsyndrom vanliga symtomen: \u00e4ngslan, \u00e5ngest, rastl\u00f6shet och  s\u00f6mnsv\u00e5righeter. Vid depressioner med inslag av nyss n\u00e4mnda symtom kan Oxascand anv\u00e4ndas  tillsammans med sedvanliga antidepressiva farmaka. Delirium tremens, predeliri\u00f6sa tillst\u00e5nd och akuta abstinenssymtom som \u00e5ngest, sp\u00e4nning och  excitation i samband med alkoholmissbruk.",
        "legalStatusOfSupply": {
          "coding": [
            {
              "system": "http://spor.ema.europa.eu/v1/lists/100000072051",
              "code": "100000072085",
              "display": "Medicinal product subject to special medical prescription"
            }
          ]
        },
        "classification": [
          {
            "coding": [
              {
                "system": "http://spor.ema.europa.eu/v1/lists/100000116677",
                "code": "100000093533",
                "display": "N05BA04"
              }
            ]
          }
        ],
        "name": [
          {
            "productName": "Oxascand 10 mg Tablett",
            "namePart": [
              {
                "part": "Oxascand",
                "type": {
                  "coding": [
                    {
                      "system": "http://spor.ema.europa.eu/v1/lists/220000000000",
                      "code": "220000000002",
                      "display": "Invented name part"
                    }
                  ]
                }
              },
              {
                "part": "10 mg",
                "type": {
                  "coding": [
                    {
                      "system": "http://spor.ema.europa.eu/v1/lists/220000000000",
                      "code": "220000000004",
                      "display": "Strength part"
                    }
                  ]
                }
              },
              {
                "part": "Tablett",
                "type": {
                  "coding": [
                    {
                      "system": "http://spor.ema.europa.eu/v1/lists/220000000000",
                      "code": "220000000005",
                      "display": "Pharmaceutical dose form part"
                    }
                  ]
                }
              }
            ],
            "countryLanguage": [
              {
                "country": {
                  "coding": [
                    {
                      "system": "http://spor.ema.europa.eu/v1/lists/100000000002",
                      "code": "100000000535",
                      "display": "Sweden"
                    }
                  ]
                },
                "language": {
                  "coding": [
                    {
                      "system": "http://spor.ema.europa.eu/v1/lists/100000072057",
                      "code": "100000072288",
                      "display": "Swedish"
                    }
                  ]
                }
              }
            ]
          }
        ]
      },
      "request": {
        "method": "PUT",
        "url": "MedicinalProductDefinition/Oxascand-10mg-Tablet-SE-IS-MedicinalProductDefinition"
      },
      "fullUrl": "https://hl7-eu.github.io/unicom-ig/branches/mpd-r4b/MedicinalProductDefinition/Oxascand-10mg-Tablet-SE-IS-MedicinalProductDefinition"
    },
    {
      "resource": {
        "resourceType": "RegulatedAuthorization",
        "id": "Oxascand-10mg-Tablet-SE-IS-RegulatedAuthorization",
        "meta": {
          "versionId": "1",
          "lastUpdated": "2022-10-10T06:37:54.355+00:00"
        },
        "identifier": [
          {
            "system": "http://ema.europa.eu/fhir/MarketingAuthorizationNumber",
            "value": "10743"
          }
        ],
        "subject": [
          {
            "reference": "MedicinalProductDefinition/Oxascand-10mg-Tablet-SE-IS-MedicinalProductDefinition"
          }
        ],
        "type": {
          "coding": [
            {
              "system": "http://spor.ema.europa.eu/v1/lists/220000000060",
              "code": "220000000061",
              "display": "Marketing Authorisation"
            }
          ]
        },
        "region": [
          {
            "coding": [
              {
                "system": "http://spor.ema.europa.eu/v1/lists/100000000002",
                "code": "100000000535",
                "display": "Sweden"
              }
            ]
          }
        ],
        "status": {
          "coding": [
            {
              "system": "http://spor.ema.europa.eu/v1/lists/100000072049",
              "code": "100000072099",
              "display": "Valid"
            }
          ]
        },
        "statusDate": "1988-02-19",
        "holder": {
          "identifier": {
            "system": "https://spor.ema.europa.eu/v1/locations",
            "value": "LOC-100001602"
          },
          "display": "Teva Sweden AB"
        },
        "case": {
          "type": {
            "coding": [
              {
                "system": "http://ema.europa.eu/fhir/authorisationDateType",
                "code": "dateOfFirstAuthorisation",
                "display": "First Authorisation"
              }
            ]
          },
          "dateDateTime": "1988-02-19"
        }
      },
      "request": {
        "method": "PUT",
        "url": "RegulatedAuthorization/Oxascand-10mg-Tablet-SE-IS-RegulatedAuthorization"
      },
      "fullUrl": "https://hl7-eu.github.io/unicom-ig/branches/mpd-r4b/RegulatedAuthorization/Oxascand-10mg-Tablet-SE-IS-RegulatedAuthorization"
    },
    {
      "resource": {
        "resourceType": "PackagedProductDefinition",
        "id": "Oxascand-10mg-Tablet-SE-IS-PackagedProductDefinition01",
        "meta": {
          "versionId": "1",
          "lastUpdated": "2022-10-10T06:37:54.379+00:00"
        },
        "extension": [
          {
            "url": "http://ema.europa.eu/fhir/extension/containedItemQuantity",
            "valueQuantity": {
              "value": 10,
              "unit": "Tablet",
              "system": "http://spor.ema.europa.eu/v1/lists/200000000014",
              "code": "200000002152"
            }
          }
        ],
        "packageFor": [
          {
            "reference": "MedicinalProductDefinition/Oxascand-10mg-Tablet-SE-IS-MedicinalProductDefinition"
          }
        ],
        "description": "Blister, 100 tabletter",
        "_description": {
          "extension": [
            {
              "url": "http://ema.europa.eu/fhir/extension/language",
              "valueCoding": {
                "system": "http://spor.ema.europa.eu/v1/lists/100000072057",
                "code": "100000072288",
                "display": "Swedish"
              }
            }
          ]
        },
        "marketingStatus": [
          {
            "country": {
              "coding": [
                {
                  "system": "http://spor.ema.europa.eu/v1/lists/100000000002",
                  "code": "100000000535",
                  "display": "Sweden"
                }
              ]
            },
            "status": {
              "coding": [
                {
                  "system": "http://spor.ema.europa.eu/v1/lists/100000072052",
                  "code": "100000072083",
                  "display": "Marketed"
                }
              ]
            }
          }
        ],
        "package": {
          "type": {
            "coding": [
              {
                "system": "https://spor.ema.europa.eu/v1/lists/100000073346",
                "code": "100000073498",
                "display": "Box"
              }
            ]
          },
          "quantity": 1,
          "material": [
            {
              "coding": [
                {
                  "system": "https://spor.ema.europa.eu/v1/lists/200000003199",
                  "code": "200000003529",
                  "display": "Cardboard"
                }
              ]
            }
          ],
          "shelfLifeStorage": [
            {
              "type": {
                "coding": [
                  {
                    "system": "https://spor.ema.europa.eu/v1/lists/100000073343",
                    "code": "100000073403",
                    "display": "Shelf life of the medicinal product as packaged for sale"
                  }
                ]
              },
              "periodDuration": {
                "value": 3,
                "unit": "years"
              }
            },
            {
              "type": {
                "coding": [
                  {
                    "system": "https://spor.ema.europa.eu/v1/lists/100000073343",
                    "code": "100000073408",
                    "display": "Shelf life in unit-dose dispensing"
                  }
                ]
              },
              "periodDuration": {
                "value": 6,
                "unit": "months"
              }
            }
          ],
          "package": [
            {
              "type": {
                "coding": [
                  {
                    "system": "https://spor.ema.europa.eu/v1/lists/100000073346",
                    "code": "100000073496",
                    "display": "Blister"
                  }
                ]
              },
              "quantity": 10,
              "material": [
                {
                  "coding": [
                    {
                      "system": "https://spor.ema.europa.eu/v1/lists/200000003199",
                      "code": "200000003208",
                      "display": "Plastic"
                    }
                  ]
                },
                {
                  "coding": [
                    {
                      "system": "https://spor.ema.europa.eu/v1/lists/200000003199",
                      "code": "200000003200",
                      "display": "Aluminium"
                    }
                  ]
                }
              ],
              "containedItem": [
                {
                  "item": {
                    "reference": {
                      "reference": "ManufacturedItemDefinition/Oxascand-10mg-Tablet-SE-IS-ManufacturedItemDefinition"
                    }
                  },
                  "amount": {
                    "value": 10,
                    "unit": "Tablet",
                    "system": "http://spor.ema.europa.eu/v1/lists/200000000014",
                    "code": "200000002152"
                  }
                }
              ]
            }
          ]
        }
      },
      "request": {
        "method": "PUT",
        "url": "PackagedProductDefinition/Oxascand-10mg-Tablet-SE-IS-PackagedProductDefinition01"
      },
      "fullUrl": "https://hl7-eu.github.io/unicom-ig/branches/mpd-r4b/PackagedProductDefinition/Oxascand-10mg-Tablet-SE-IS-PackagedProductDefinition01"
    },
    {
      "resource": {
        "resourceType": "PackagedProductDefinition",
        "id": "Oxascand-10mg-Tablet-SE-IS-PackagedProductDefinition02",
        "meta": {
          "versionId": "1",
          "lastUpdated": "2022-10-10T06:37:54.39+00:00"
        },
        "extension": [
          {
            "url": "http://ema.europa.eu/fhir/extension/containedItemQuantity",
            "valueQuantity": {
              "value": 5,
              "unit": "Tablet",
              "system": "http://spor.ema.europa.eu/v1/lists/200000000014",
              "code": "200000002152"
            }
          }
        ],
        "packageFor": [
          {
            "reference": "MedicinalProductDefinition/Oxascand-10mg-Tablet-SE-IS-MedicinalProductDefinition"
          }
        ],
        "description": "Blister, 25 tabletter",
        "_description": {
          "extension": [
            {
              "url": "http://ema.europa.eu/fhir/extension/language",
              "valueCoding": {
                "system": "http://spor.ema.europa.eu/v1/lists/100000072057",
                "code": "100000072288",
                "display": "Swedish"
              }
            }
          ]
        },
        "marketingStatus": [
          {
            "country": {
              "coding": [
                {
                  "system": "http://spor.ema.europa.eu/v1/lists/100000000002",
                  "code": "100000000535",
                  "display": "Sweden"
                }
              ]
            },
            "status": {
              "coding": [
                {
                  "system": "http://spor.ema.europa.eu/v1/lists/100000072052",
                  "code": "100000072083",
                  "display": "Marketed"
                }
              ]
            }
          }
        ],
        "package": {
          "type": {
            "coding": [
              {
                "system": "https://spor.ema.europa.eu/v1/lists/100000073346",
                "code": "100000073498",
                "display": "Box"
              }
            ]
          },
          "quantity": 1,
          "material": [
            {
              "coding": [
                {
                  "system": "https://spor.ema.europa.eu/v1/lists/200000003199",
                  "code": "200000003529",
                  "display": "Cardboard"
                }
              ]
            }
          ],
          "shelfLifeStorage": [
            {
              "type": {
                "coding": [
                  {
                    "system": "https://spor.ema.europa.eu/v1/lists/100000073343",
                    "code": "100000073403",
                    "display": "Shelf life of the medicinal product as packaged for sale"
                  }
                ]
              },
              "periodDuration": {
                "value": 3,
                "unit": "years"
              }
            },
            {
              "type": {
                "coding": [
                  {
                    "system": "https://spor.ema.europa.eu/v1/lists/100000073343",
                    "code": "100000073408",
                    "display": "Shelf life in unit-dose dispensing"
                  }
                ]
              },
              "periodDuration": {
                "value": 6,
                "unit": "months"
              }
            }
          ],
          "package": [
            {
              "type": {
                "coding": [
                  {
                    "system": "https://spor.ema.europa.eu/v1/lists/100000073346",
                    "code": "100000073496",
                    "display": "Blister"
                  }
                ]
              },
              "quantity": 5,
              "material": [
                {
                  "coding": [
                    {
                      "system": "https://spor.ema.europa.eu/v1/lists/200000003199",
                      "code": "200000003208",
                      "display": "Plastic"
                    }
                  ]
                },
                {
                  "coding": [
                    {
                      "system": "https://spor.ema.europa.eu/v1/lists/200000003199",
                      "code": "200000003200",
                      "display": "Aluminium"
                    }
                  ]
                }
              ],
              "containedItem": [
                {
                  "item": {
                    "reference": {
                      "reference": "ManufacturedItemDefinition/Oxascand-10mg-Tablet-SE-IS-ManufacturedItemDefinition"
                    }
                  },
                  "amount": {
                    "value": 5,
                    "unit": "Tablet",
                    "system": "http://spor.ema.europa.eu/v1/lists/200000000014",
                    "code": "200000002152"
                  }
                }
              ]
            }
          ]
        }
      },
      "request": {
        "method": "PUT",
        "url": "PackagedProductDefinition/Oxascand-10mg-Tablet-SE-IS-PackagedProductDefinition02"
      },
      "fullUrl": "https://hl7-eu.github.io/unicom-ig/branches/mpd-r4b/PackagedProductDefinition/Oxascand-10mg-Tablet-SE-IS-PackagedProductDefinition02"
    },
    {
      "resource": {
        "resourceType": "PackagedProductDefinition",
        "id": "Oxascand-10mg-Tablet-SE-IS-PackagedProductDefinition03",
        "meta": {
          "versionId": "1",
          "lastUpdated": "2022-10-10T06:37:54.401+00:00"
        },
        "extension": [
          {
            "url": "http://ema.europa.eu/fhir/extension/containedItemQuantity",
            "valueQuantity": {
              "value": 1,
              "unit": "Tablet",
              "system": "http://spor.ema.europa.eu/v1/lists/200000000014",
              "code": "200000002152"
            }
          }
        ],
        "packageFor": [
          {
            "reference": "MedicinalProductDefinition/Oxascand-10mg-Tablet-SE-IS-MedicinalProductDefinition"
          }
        ],
        "description": "Blister, 50 x 1 tablett (endos)",
        "_description": {
          "extension": [
            {
              "url": "http://ema.europa.eu/fhir/extension/language",
              "valueCoding": {
                "system": "http://spor.ema.europa.eu/v1/lists/100000072057",
                "code": "100000072288",
                "display": "Swedish"
              }
            }
          ]
        },
        "marketingStatus": [
          {
            "country": {
              "coding": [
                {
                  "system": "http://spor.ema.europa.eu/v1/lists/100000000002",
                  "code": "100000000535",
                  "display": "Sweden"
                }
              ]
            },
            "status": {
              "coding": [
                {
                  "system": "http://spor.ema.europa.eu/v1/lists/100000072052",
                  "code": "100000072083",
                  "display": "Marketed"
                }
              ]
            }
          }
        ],
        "package": {
          "type": {
            "coding": [
              {
                "system": "https://spor.ema.europa.eu/v1/lists/100000073346",
                "code": "100000073498",
                "display": "Box"
              }
            ]
          },
          "quantity": 1,
          "material": [
            {
              "coding": [
                {
                  "system": "https://spor.ema.europa.eu/v1/lists/200000003199",
                  "code": "200000003529",
                  "display": "Cardboard"
                }
              ]
            }
          ],
          "shelfLifeStorage": [
            {
              "type": {
                "coding": [
                  {
                    "system": "https://spor.ema.europa.eu/v1/lists/100000073343",
                    "code": "100000073403",
                    "display": "Shelf life of the medicinal product as packaged for sale"
                  }
                ]
              },
              "periodDuration": {
                "value": 3,
                "unit": "years"
              }
            },
            {
              "type": {
                "coding": [
                  {
                    "system": "https://spor.ema.europa.eu/v1/lists/100000073343",
                    "code": "100000073408",
                    "display": "Shelf life in unit-dose dispensing"
                  }
                ]
              },
              "periodDuration": {
                "value": 6,
                "unit": "months"
              }
            }
          ],
          "package": [
            {
              "type": {
                "coding": [
                  {
                    "system": "https://spor.ema.europa.eu/v1/lists/100000073346",
                    "code": "100000174066",
                    "display": "Unit-dose blister"
                  }
                ]
              },
              "quantity": 50,
              "material": [
                {
                  "coding": [
                    {
                      "system": "https://spor.ema.europa.eu/v1/lists/200000003199",
                      "code": "200000003208",
                      "display": "Plastic"
                    }
                  ]
                },
                {
                  "coding": [
                    {
                      "system": "https://spor.ema.europa.eu/v1/lists/200000003199",
                      "code": "200000003200",
                      "display": "Aluminium"
                    }
                  ]
                }
              ],
              "containedItem": [
                {
                  "item": {
                    "reference": {
                      "reference": "ManufacturedItemDefinition/Oxascand-10mg-Tablet-SE-IS-ManufacturedItemDefinition"
                    }
                  },
                  "amount": {
                    "value": 1,
                    "unit": "Tablet",
                    "system": "http://spor.ema.europa.eu/v1/lists/200000000014",
                    "code": "200000002152"
                  }
                }
              ]
            }
          ]
        }
      },
      "request": {
        "method": "PUT",
        "url": "PackagedProductDefinition/Oxascand-10mg-Tablet-SE-IS-PackagedProductDefinition03"
      },
      "fullUrl": "https://hl7-eu.github.io/unicom-ig/branches/mpd-r4b/PackagedProductDefinition/Oxascand-10mg-Tablet-SE-IS-PackagedProductDefinition03"
    },
    {
      "resource": {
        "resourceType": "PackagedProductDefinition",
        "id": "Oxascand-10mg-Tablet-SE-IS-PackagedProductDefinition04",
        "meta": {
          "versionId": "1",
          "lastUpdated": "2022-10-10T06:37:54.413+00:00"
        },
        "extension": [
          {
            "url": "http://ema.europa.eu/fhir/extension/containedItemQuantity",
            "valueQuantity": {
              "value": 500,
              "unit": "Tablet",
              "system": "http://spor.ema.europa.eu/v1/lists/200000000014",
              "code": "200000002152"
            }
          }
        ],
        "packageFor": [
          {
            "reference": "MedicinalProductDefinition/Oxascand-10mg-Tablet-SE-IS-MedicinalProductDefinition"
          }
        ],
        "description": "Burk, 500 tabletter (dosdispensering)",
        "_description": {
          "extension": [
            {
              "url": "http://ema.europa.eu/fhir/extension/language",
              "valueCoding": {
                "system": "http://spor.ema.europa.eu/v1/lists/100000072057",
                "code": "100000072288",
                "display": "Swedish"
              }
            }
          ]
        },
        "marketingStatus": [
          {
            "country": {
              "coding": [
                {
                  "system": "http://spor.ema.europa.eu/v1/lists/100000000002",
                  "code": "100000000535",
                  "display": "Sweden"
                }
              ]
            },
            "status": {
              "coding": [
                {
                  "system": "http://spor.ema.europa.eu/v1/lists/100000072052",
                  "code": "100000072083",
                  "display": "Marketed"
                }
              ]
            }
          }
        ],
        "package": {
          "type": {
            "coding": [
              {
                "system": "https://spor.ema.europa.eu/v1/lists/100000073346",
                "code": "100000073498",
                "display": "Box"
              }
            ]
          },
          "quantity": 1,
          "material": [
            {
              "coding": [
                {
                  "system": "https://spor.ema.europa.eu/v1/lists/200000003199",
                  "code": "200000003529",
                  "display": "Cardboard"
                }
              ]
            }
          ],
          "shelfLifeStorage": [
            {
              "type": {
                "coding": [
                  {
                    "system": "https://spor.ema.europa.eu/v1/lists/100000073343",
                    "code": "100000073403",
                    "display": "Shelf life of the medicinal product as packaged for sale"
                  }
                ]
              },
              "periodDuration": {
                "value": 5,
                "unit": "years"
              }
            },
            {
              "type": {
                "coding": [
                  {
                    "system": "https://spor.ema.europa.eu/v1/lists/100000073343",
                    "code": "100000073408",
                    "display": "Shelf life in unit-dose dispensing"
                  }
                ]
              },
              "periodDuration": {
                "value": 6,
                "unit": "months"
              }
            }
          ],
          "package": [
            {
              "type": {
                "coding": [
                  {
                    "system": "https://spor.ema.europa.eu/v1/lists/100000073346",
                    "code": "100000073497",
                    "display": "Bottle"
                  }
                ]
              },
              "quantity": 1,
              "material": [
                {
                  "coding": [
                    {
                      "system": "https://spor.ema.europa.eu/v1/lists/200000003199",
                      "code": "200000003208",
                      "display": "Plastic"
                    }
                  ]
                }
              ],
              "containedItem": [
                {
                  "item": {
                    "reference": {
                      "reference": "ManufacturedItemDefinition/Oxascand-10mg-Tablet-SE-IS-ManufacturedItemDefinition"
                    }
                  },
                  "amount": {
                    "value": 500,
                    "unit": "Tablet",
                    "system": "http://spor.ema.europa.eu/v1/lists/200000000014",
                    "code": "200000002152"
                  }
                }
              ]
            }
          ]
        }
      },
      "request": {
        "method": "PUT",
        "url": "PackagedProductDefinition/Oxascand-10mg-Tablet-SE-IS-PackagedProductDefinition04"
      },
      "fullUrl": "https://hl7-eu.github.io/unicom-ig/branches/mpd-r4b/PackagedProductDefinition/Oxascand-10mg-Tablet-SE-IS-PackagedProductDefinition04"
    },
    {
      "resource": {
        "resourceType": "ManufacturedItemDefinition",
        "id": "Oxascand-10mg-Tablet-SE-IS-ManufacturedItemDefinition",
        "meta": {
          "versionId": "1",
          "lastUpdated": "2022-10-10T06:37:54.427+00:00"
        },
        "status": "active",
        "manufacturedDoseForm": {
          "coding": [
            {
              "system": "http://spor.ema.europa.eu/v1/lists/200000000004",
              "code": "100000073664",
              "display": "Tablet"
            }
          ]
        },
        "unitOfPresentation": {
          "coding": [
            {
              "system": "http://spor.ema.europa.eu/v1/lists/200000000014",
              "code": "200000002152",
              "display": "Tablet"
            }
          ]
        }
      },
      "request": {
        "method": "PUT",
        "url": "ManufacturedItemDefinition/Oxascand-10mg-Tablet-SE-IS-ManufacturedItemDefinition"
      },
      "fullUrl": "https://hl7-eu.github.io/unicom-ig/branches/mpd-r4b/ManufacturedItemDefinition/Oxascand-10mg-Tablet-SE-IS-ManufacturedItemDefinition"
    },
    {
      "resource": {
        "resourceType": "Ingredient",
        "id": "Oxascand-10mg-Tablet-SE-IS-Ingredient01",
        "meta": {
          "versionId": "1",
          "lastUpdated": "2022-10-10T06:37:54.452+00:00"
        },
        "status": "active",
        "for": [
          {
            "reference": "MedicinalProductDefinition/Oxascand-10mg-Tablet-SE-IS-MedicinalProductDefinition"
          },
          {
            "reference": "ManufacturedItemDefinition/Oxascand-10mg-Tablet-SE-IS-ManufacturedItemDefinition"
          },
          {
            "reference": "AdministrableProductDefinition/Oxascand-10mg-Tablet-SE-IS-AdministrableProductDefinition"
          }
        ],
        "role": {
          "coding": [
            {
              "system": "http://spor.ema.europa.eu/v1/lists/100000072050",
              "code": "100000072072",
              "display": "Active"
            }
          ]
        },
        "substance": {
          "code": {
            "concept": {
              "coding": [
                {
                  "system": "http://spor.azure-api.net/sms/api/v2/SubstanceDefinition",
                  "code": "100000091921",
                  "display": "Oxazepam"
                }
              ]
            }
          },
          "strength": [
            {
              "presentationRatio": {
                "numerator": {
                  "value": 10,
                  "_comparator": {
                    "extension": [
                      {
                        "url": "http://ema.europa.eu/fhir/extension/comparator",
                        "valueCoding": {
                          "system": "https://spor.ema.europa.eu/v1/lists/100000000008",
                          "code": "100000000049",
                          "display": "equal to"
                        }
                      }
                    ]
                  },
                  "unit": "milligram(s)",
                  "system": "http://spor.ema.europa.eu/v1/lists/100000110633",
                  "code": "100000110655"
                },
                "denominator": {
                  "value": 1,
                  "unit": "unit(s)",
                  "system": "http://spor.ema.europa.eu/v1/lists/100000110633",
                  "code": "100000110756"
                }
              },
              "referenceStrength": [
                {
                  "substance": {
                    "concept": {
                      "coding": [
                        {
                          "system": "https://spor.ema.europa.eu/v2/SubstanceDefinition",
                          "code": "100000091921",
                          "display": "Oxazepam"
                        }
                      ]
                    }
                  },
                  "strengthRatio": {
                    "numerator": {
                      "value": 10,
                      "_comparator": {
                        "extension": [
                          {
                            "url": "http://ema.europa.eu/fhir/extension/comparator",
                            "valueCoding": {
                              "system": "https://spor.ema.europa.eu/v1/lists/100000000008",
                              "code": "100000000049",
                              "display": "equal to"
                            }
                          }
                        ]
                      },
                      "unit": "milligram(s)",
                      "system": "http://spor.ema.europa.eu/v1/lists/100000110633",
                      "code": "100000110655"
                    },
                    "denominator": {
                      "value": 1,
                      "unit": "unit(s)",
                      "system": "http://spor.ema.europa.eu/v1/lists/100000110633",
                      "code": "100000110756"
                    }
                  }
                }
              ]
            }
          ]
        }
      },
      "request": {
        "method": "PUT",
        "url": "Ingredient/Oxascand-10mg-Tablet-SE-IS-Ingredient01"
      },
      "fullUrl": "https://hl7-eu.github.io/unicom-ig/branches/mpd-r4b/Ingredient/Oxascand-10mg-Tablet-SE-IS-Ingredient01"
    },
    {
      "resource": {
        "resourceType": "Ingredient",
        "id": "Oxascand-10mg-Tablet-SE-IS-Ingredient02",
        "meta": {
          "versionId": "1",
          "lastUpdated": "2022-10-10T06:37:54.473+00:00"
        },
        "status": "active",
        "for": [
          {
            "reference": "MedicinalProductDefinition/Oxascand-10mg-Tablet-SE-IS-MedicinalProductDefinition"
          },
          {
            "reference": "ManufacturedItemDefinition/Oxascand-10mg-Tablet-SE-IS-ManufacturedItemDefinition"
          },
          {
            "reference": "AdministrableProductDefinition/Oxascand-10mg-Tablet-SE-IS-AdministrableProductDefinition"
          }
        ],
        "role": {
          "coding": [
            {
              "system": "http://spor.ema.europa.eu/v1/lists/100000072050",
              "code": "100000072082",
              "display": "Excipient"
            }
          ]
        },
        "substance": {
          "code": {
            "concept": {
              "coding": [
                {
                  "system": "http://spor.azure-api.net/sms/api/v2/SubstanceDefinition",
                  "code": "100000078231",
                  "display": "Cellulose, microcrystalline"
                }
              ]
            }
          }
        }
      },
      "request": {
        "method": "PUT",
        "url": "Ingredient/Oxascand-10mg-Tablet-SE-IS-Ingredient02"
      },
      "fullUrl": "https://hl7-eu.github.io/unicom-ig/branches/mpd-r4b/Ingredient/Oxascand-10mg-Tablet-SE-IS-Ingredient02"
    },
    {
      "resource": {
        "resourceType": "Ingredient",
        "id": "Oxascand-10mg-Tablet-SE-IS-Ingredient03",
        "meta": {
          "versionId": "1",
          "lastUpdated": "2022-10-10T06:37:54.493+00:00"
        },
        "status": "active",
        "for": [
          {
            "reference": "MedicinalProductDefinition/Oxascand-10mg-Tablet-SE-IS-MedicinalProductDefinition"
          },
          {
            "reference": "ManufacturedItemDefinition/Oxascand-10mg-Tablet-SE-IS-ManufacturedItemDefinition"
          },
          {
            "reference": "AdministrableProductDefinition/Oxascand-10mg-Tablet-SE-IS-AdministrableProductDefinition"
          }
        ],
        "role": {
          "coding": [
            {
              "system": "http://spor.ema.europa.eu/v1/lists/100000072050",
              "code": "100000072082",
              "display": "Excipient"
            }
          ]
        },
        "substance": {
          "code": {
            "concept": {
              "coding": [
                {
                  "system": "http://spor.azure-api.net/sms/api/v2/SubstanceDefinition",
                  "code": "100000093305",
                  "display": "Lactose monohydrate"
                }
              ]
            }
          }
        }
      },
      "request": {
        "method": "PUT",
        "url": "Ingredient/Oxascand-10mg-Tablet-SE-IS-Ingredient03"
      },
      "fullUrl": "https://hl7-eu.github.io/unicom-ig/branches/mpd-r4b/Ingredient/Oxascand-10mg-Tablet-SE-IS-Ingredient03"
    },
    {
      "resource": {
        "resourceType": "Ingredient",
        "id": "Oxascand-10mg-Tablet-SE-IS-Ingredient04",
        "meta": {
          "versionId": "1",
          "lastUpdated": "2022-10-10T06:37:54.511+00:00"
        },
        "status": "active",
        "for": [
          {
            "reference": "MedicinalProductDefinition/Oxascand-10mg-Tablet-SE-IS-MedicinalProductDefinition"
          },
          {
            "reference": "ManufacturedItemDefinition/Oxascand-10mg-Tablet-SE-IS-ManufacturedItemDefinition"
          },
          {
            "reference": "AdministrableProductDefinition/Oxascand-10mg-Tablet-SE-IS-AdministrableProductDefinition"
          }
        ],
        "role": {
          "coding": [
            {
              "system": "http://spor.ema.europa.eu/v1/lists/100000072050",
              "code": "100000072082",
              "display": "Excipient"
            }
          ]
        },
        "substance": {
          "code": {
            "concept": {
              "coding": [
                {
                  "system": "http://spor.azure-api.net/sms/api/v2/SubstanceDefinition",
                  "code": "100000088586",
                  "display": "Magnesium stearate"
                }
              ]
            }
          }
        }
      },
      "request": {
        "method": "PUT",
        "url": "Ingredient/Oxascand-10mg-Tablet-SE-IS-Ingredient04"
      },
      "fullUrl": "https://hl7-eu.github.io/unicom-ig/branches/mpd-r4b/Ingredient/Oxascand-10mg-Tablet-SE-IS-Ingredient04"
    },
    {
      "resource": {
        "resourceType": "Ingredient",
        "id": "Oxascand-10mg-Tablet-SE-IS-Ingredient05",
        "meta": {
          "versionId": "1",
          "lastUpdated": "2022-10-10T06:37:54.522+00:00"
        },
        "status": "active",
        "for": [
          {
            "reference": "MedicinalProductDefinition/Oxascand-10mg-Tablet-SE-IS-MedicinalProductDefinition"
          },
          {
            "reference": "ManufacturedItemDefinition/Oxascand-10mg-Tablet-SE-IS-ManufacturedItemDefinition"
          },
          {
            "reference": "AdministrableProductDefinition/Oxascand-10mg-Tablet-SE-IS-AdministrableProductDefinition"
          }
        ],
        "role": {
          "coding": [
            {
              "system": "http://spor.ema.europa.eu/v1/lists/100000072050",
              "code": "100000072082",
              "display": "Excipient"
            }
          ]
        },
        "substance": {
          "code": {
            "concept": {
              "coding": [
                {
                  "system": "http://spor.azure-api.net/sms/api/v2/SubstanceDefinition",
                  "code": "100000079001",
                  "display": "Starch, pregelatinised"
                }
              ]
            }
          }
        }
      },
      "request": {
        "method": "PUT",
        "url": "Ingredient/Oxascand-10mg-Tablet-SE-IS-Ingredient05"
      },
      "fullUrl": "https://hl7-eu.github.io/unicom-ig/branches/mpd-r4b/Ingredient/Oxascand-10mg-Tablet-SE-IS-Ingredient05"
    },
    {
      "resource": {
        "resourceType": "Ingredient",
        "id": "Oxascand-10mg-Tablet-SE-IS-Ingredient06",
        "meta": {
          "versionId": "1",
          "lastUpdated": "2022-10-10T06:37:54.534+00:00"
        },
        "status": "active",
        "for": [
          {
            "reference": "MedicinalProductDefinition/Oxascand-10mg-Tablet-SE-IS-MedicinalProductDefinition"
          },
          {
            "reference": "ManufacturedItemDefinition/Oxascand-10mg-Tablet-SE-IS-ManufacturedItemDefinition"
          },
          {
            "reference": "AdministrableProductDefinition/Oxascand-10mg-Tablet-SE-IS-AdministrableProductDefinition"
          }
        ],
        "role": {
          "coding": [
            {
              "system": "http://spor.ema.europa.eu/v1/lists/100000072050",
              "code": "100000072082",
              "display": "Excipient"
            }
          ]
        },
        "substance": {
          "code": {
            "concept": {
              "coding": [
                {
                  "system": "http://spor.azure-api.net/sms/api/v2/SubstanceDefinition",
                  "code": "100000079044",
                  "display": "Wheat starch"
                }
              ]
            }
          }
        }
      },
      "request": {
        "method": "PUT",
        "url": "Ingredient/Oxascand-10mg-Tablet-SE-IS-Ingredient06"
      },
      "fullUrl": "https://hl7-eu.github.io/unicom-ig/branches/mpd-r4b/Ingredient/Oxascand-10mg-Tablet-SE-IS-Ingredient06"
    }
  ]
}