{
  "id": "Panodil60mgsuppositorium-SE-PLC-MedicinalProductDef-BBDL",
  "type": "transaction",
  "resourceType": "Bundle",
  "entry": [
    {
      "resource": {
        "resourceType": "MedicinalProductDefinition",
        "id": "Panodil60mgsuppositorium-SE-PLC-MedicinalProductDef",
        "meta": {
          "versionId": "1",
          "lastUpdated": "2022-10-23T10:54:21.369+00:00"
        },
        "extension": [
          {
            "url": "http://ema.europa.eu/fhir/extension/authorisedDoseForm",
            "valueCoding": {
              "system": "http://spor.ema.europa.eu/v1/lists/200000000004~200000000006~200000000007~200000000008",
              "code": "100000073843",
              "display": "Suppository"
            }
          }
        ],
        "identifier": [
          {
            "system": "http://ema.europa.eu/fhir/mpId",
            "value": "SE-100004600-00009621"
          },
          {
            "system": "http://ema.europa.eu/fhir/eurdId",
            "value": "2289"
          }
        ],
        "domain": {
          "coding": [
            {
              "system": "http://spor.ema.europa.eu/v1/lists/100000000004",
              "code": "100000000012",
              "display": "Human use"
            }
          ]
        },
        "status": {
          "coding": [
            {
              "system": "http://spor.ema.europa.eu/v1/lists/200000005003",
              "code": "200000005004",
              "display": "Current"
            }
          ]
        },
        "indication": "Huvudv\u00e4rk, tandv\u00e4rk, feber vid f\u00f6rkylningssjukdomar, menstruationssm\u00e4rtor, muskel- och ledv\u00e4rk, som analgetikum vid reumatiska sm\u00e4rtor, hyperpyrexi.  Suppositorier \u00e4r l\u00e4mpliga f\u00f6r feber och sm\u00e4rttillst\u00e5nd vid sv\u00e4ljsv\u00e5righeter, illam\u00e5ende och kr\u00e4kningar eller postoperativt.",
        "legalStatusOfSupply": {
          "coding": [
            {
              "system": "http://spor.ema.europa.eu/v1/lists/100000072051",
              "code": "100000072076",
              "display": "Medicinal product not subject to medical prescription"
            }
          ]
        },
        "classification": [
          {
            "coding": [
              {
                "system": "http://spor.ema.europa.eu/v1/lists/100000093533",
                "code": "100000097305",
                "display": "N02BE01"
              }
            ]
          }
        ],
        "name": [
          {
            "productName": "Panodil 60 mg suppositorium",
            "namePart": [
              {
                "part": "Panodil",
                "type": {
                  "coding": [
                    {
                      "system": "http://spor.ema.europa.eu/v1/lists/220000000000",
                      "code": "220000000002",
                      "display": "Invented name part"
                    }
                  ]
                }
              },
              {
                "part": "60 mg",
                "type": {
                  "coding": [
                    {
                      "system": "http://spor.ema.europa.eu/v1/lists/220000000000",
                      "code": "220000000004",
                      "display": "Strength part"
                    }
                  ]
                }
              },
              {
                "part": "suppositorium",
                "type": {
                  "coding": [
                    {
                      "system": "http://spor.ema.europa.eu/v1/lists/220000000000",
                      "code": "220000000005",
                      "display": "Pharmaceutical dose form part"
                    }
                  ]
                }
              }
            ],
            "countryLanguage": [
              {
                "country": {
                  "coding": [
                    {
                      "system": "http://spor.ema.europa.eu/v1/lists/100000000002",
                      "code": "100000000535",
                      "display": "Sweden"
                    }
                  ]
                },
                "language": {
                  "coding": [
                    {
                      "system": "http://spor.ema.europa.eu/v1/lists/100000072057",
                      "code": "100000072288",
                      "display": "Swedish"
                    }
                  ]
                }
              }
            ]
          }
        ]
      },
      "request": {
        "method": "PUT",
        "url": "MedicinalProductDefinition/Panodil60mgsuppositorium-SE-PLC-MedicinalProductDef"
      },
      "fullUrl": "https://hl7-eu.github.io/unicom-ig/branches/mpd-r4b/MedicinalProductDefinition/Panodil60mgsuppositorium-SE-PLC-MedicinalProductDef"
    },
    {
      "resource": {
        "resourceType": "RegulatedAuthorization",
        "id": "Panodil60mgsuppositorium-SE-PLC-RegAutho",
        "meta": {
          "versionId": "1",
          "lastUpdated": "2022-10-23T10:54:21.41+00:00"
        },
        "identifier": [
          {
            "system": "http://ema.europa.eu/fhir/MarketingAuthorizationNumber",
            "value": "9621"
          }
        ],
        "subject": [
          {
            "reference": "MedicinalProductDefinition/Panodil60mgsuppositorium-SE-PLC-MedicinalProductDef"
          }
        ],
        "type": {
          "coding": [
            {
              "system": "http://spor.ema.europa.eu/v1/lists/220000000060",
              "code": "220000000061",
              "display": "Marketing Authorisation"
            }
          ]
        },
        "region": [
          {
            "coding": [
              {
                "system": "http://spor.ema.europa.eu/v1/lists/100000000002",
                "code": "100000000535",
                "display": "Sweden"
              }
            ]
          }
        ],
        "status": {
          "coding": [
            {
              "system": "http://spor.ema.europa.eu/v1/lists/100000072049",
              "code": "100000072099",
              "display": "Valid"
            }
          ]
        },
        "statusDate": "1981-03-13",
        "holder": {
          "identifier": {
            "system": "https://spor.ema.europa.eu/v1/locations",
            "value": "LOC-100005555"
          },
          "display": "Perrigo Sverige AB"
        },
        "case": {
          "type": {
            "coding": [
              {
                "system": "http://ema.europa.eu/fhir/authorisationDateType",
                "code": "dateOfFirstAuthorisation",
                "display": "First Authorisation"
              }
            ]
          },
          "dateDateTime": "1981-03-13"
        }
      },
      "request": {
        "method": "PUT",
        "url": "RegulatedAuthorization/Panodil60mgsuppositorium-SE-PLC-RegAutho"
      },
      "fullUrl": "https://hl7-eu.github.io/unicom-ig/branches/mpd-r4b/RegulatedAuthorization/Panodil60mgsuppositorium-SE-PLC-RegAutho"
    },
    {
      "resource": {
        "resourceType": "PackagedProductDefinition",
        "id": "Panodil60mgsuppositorium-SE-PLC-PackageProductDef",
        "meta": {
          "versionId": "1",
          "lastUpdated": "2022-10-23T10:54:21.439+00:00"
        },
        "extension": [
          {
            "url": "http://ema.europa.eu/fhir/extension/containedItemQuantity",
            "valueQuantity": {
              "value": 10,
              "unit": "Suppository",
              "system": "http://spor.ema.europa.eu/v1/lists/200000000014",
              "code": "200000002149"
            }
          }
        ],
        "packageFor": [
          {
            "reference": "MedicinalProductDefinition/Panodil60mgsuppositorium-SE-PLC-MedicinalProductDef"
          }
        ],
        "description": "Strip, 10 suppositorier",
        "_description": {
          "extension": [
            {
              "url": "http://ema.europa.eu/fhir/extension/language",
              "valueCoding": {
                "system": "http://spor.ema.europa.eu/v1/lists/100000072057",
                "code": "100000072288",
                "display": "Swedish"
              }
            }
          ]
        },
        "marketingStatus": [
          {
            "country": {
              "coding": [
                {
                  "system": "http://spor.ema.europa.eu/v1/lists/100000000002",
                  "code": "100000000535",
                  "display": "Sweden"
                }
              ]
            },
            "status": {
              "coding": [
                {
                  "system": "http://spor.ema.europa.eu/v1/lists/100000072052",
                  "code": "100000072083",
                  "display": "Marketed"
                }
              ]
            }
          }
        ],
        "package": {
          "type": {
            "coding": [
              {
                "system": "https://spor.ema.europa.eu/v1/lists/100000073346",
                "code": "100000073498",
                "display": "Box"
              }
            ]
          },
          "quantity": 1,
          "material": [
            {
              "coding": [
                {
                  "system": "https://spor.ema.europa.eu/v1/lists/200000003199",
                  "code": "200000003529",
                  "display": "Cardboard"
                }
              ]
            }
          ],
          "shelfLifeStorage": [
            {
              "type": {
                "coding": [
                  {
                    "system": "https://spor.ema.europa.eu/v1/lists/100000073343",
                    "code": "100000073403",
                    "display": "Shelf life of the medicinal product as packaged for sale"
                  }
                ]
              },
              "periodDuration": {
                "value": 5,
                "unit": "year",
                "system": "https://spor.ema.europa.eu/v1/lists/100000110633",
                "code": "200000003434"
              },
              "specialPrecautionsForStorage": [
                {
                  "coding": [
                    {
                      "system": "https://spor.ema.europa.eu/v1/lists/100000073344",
                      "code": "100000073410",
                      "display": "Do not store above 25\u00b0C"
                    }
                  ]
                }
              ]
            }
          ],
          "package": [
            {
              "type": {
                "coding": [
                  {
                    "system": "https://spor.ema.europa.eu/v1/lists/100000073346",
                    "code": "100000073559",
                    "display": "Strip"
                  }
                ]
              },
              "quantity": 10,
              "material": [
                {
                  "coding": [
                    {
                      "system": "https://spor.ema.europa.eu/v1/lists/200000003199",
                      "code": "200000003222",
                      "display": "PolyVinyl Chloride"
                    }
                  ]
                },
                {
                  "coding": [
                    {
                      "system": "https://spor.ema.europa.eu/v1/lists/200000003199",
                      "code": "200000003214",
                      "display": "PolyEthylene"
                    }
                  ]
                }
              ],
              "containedItem": [
                {
                  "item": {
                    "reference": {
                      "reference": "ManufacturedItemDefinition/Panodil60mgsuppositorium-SE-PLC-ManufacturedItemDef"
                    }
                  },
                  "amount": {
                    "value": 1,
                    "unit": "Suppository",
                    "system": "http://spor.ema.europa.eu/v1/lists/100000110633~200000000014",
                    "code": "200000002149"
                  }
                }
              ]
            }
          ]
        }
      },
      "request": {
        "method": "PUT",
        "url": "PackagedProductDefinition/Panodil60mgsuppositorium-SE-PLC-PackageProductDef"
      },
      "fullUrl": "https://hl7-eu.github.io/unicom-ig/branches/mpd-r4b/PackagedProductDefinition/Panodil60mgsuppositorium-SE-PLC-PackageProductDef"
    },
    {
      "resource": {
        "resourceType": "ManufacturedItemDefinition",
        "id": "Panodil60mgsuppositorium-SE-PLC-ManufacturedItemDef",
        "meta": {
          "versionId": "1",
          "lastUpdated": "2022-10-23T10:54:21.45+00:00"
        },
        "status": "active",
        "manufacturedDoseForm": {
          "coding": [
            {
              "system": "http://spor.ema.europa.eu/v1/lists/200000000004",
              "code": "100000073843",
              "display": "Suppository"
            }
          ]
        },
        "unitOfPresentation": {
          "coding": [
            {
              "system": "http://spor.ema.europa.eu/v1/lists/200000000014",
              "code": "200000002149",
              "display": "Suppository"
            }
          ]
        }
      },
      "request": {
        "method": "PUT",
        "url": "ManufacturedItemDefinition/Panodil60mgsuppositorium-SE-PLC-ManufacturedItemDef"
      },
      "fullUrl": "https://hl7-eu.github.io/unicom-ig/branches/mpd-r4b/ManufacturedItemDefinition/Panodil60mgsuppositorium-SE-PLC-ManufacturedItemDef"
    },
    {
      "resource": {
        "resourceType": "Ingredient",
        "id": "Panodil60mgsuppositorium-SE-PLC-Ingredient01",
        "meta": {
          "versionId": "1",
          "lastUpdated": "2022-10-23T10:54:21.471+00:00"
        },
        "status": "active",
        "for": [
          {
            "reference": "MedicinalProductDefinition/Panodil60mgsuppositorium-SE-PLC-MedicinalProductDef"
          },
          {
            "reference": "ManufacturedItemDefinition/Panodil60mgsuppositorium-SE-PLC-ManufacturedItemDef"
          },
          {
            "reference": "AdministrableProductDefinition/Panodil60mgsuppositorium-SE-PLC-AdminProductDef"
          }
        ],
        "role": {
          "coding": [
            {
              "system": "https://spor.ema.europa.eu/v1/lists/100000072050",
              "code": "100000072072",
              "display": "Active"
            }
          ]
        },
        "substance": {
          "code": {
            "concept": {
              "coding": [
                {
                  "system": "https://spor.ema.europa.eu/v2/SubstanceDefinition",
                  "code": "100000090270",
                  "display": "Paracetamol"
                }
              ]
            }
          },
          "strength": [
            {
              "presentationRatio": {
                "numerator": {
                  "value": 60,
                  "_comparator": {
                    "extension": [
                      {
                        "url": "http://ema.europa.eu/fhir/extension/comparator",
                        "valueCoding": {
                          "system": "https://spor.ema.europa.eu/v1/lists/100000000008",
                          "code": "100000000049",
                          "display": "equal to"
                        }
                      }
                    ]
                  },
                  "unit": "milligram(s)",
                  "system": "https://spor.ema.europa.eu/v1/lists/100000110633",
                  "code": "100000110655"
                },
                "denominator": {
                  "value": 1,
                  "unit": "Suppository",
                  "system": "https://spor.ema.europa.eu/v1/lists/200000000014",
                  "code": "200000002149"
                }
              },
              "referenceStrength": [
                {
                  "substance": {
                    "concept": {
                      "coding": [
                        {
                          "system": "https://spor.ema.europa.eu/v2/SubstanceDefinition",
                          "code": "100000090270",
                          "display": "Paracetamol"
                        }
                      ]
                    }
                  },
                  "strengthRatio": {
                    "numerator": {
                      "value": 60,
                      "_comparator": {
                        "extension": [
                          {
                            "url": "http://ema.europa.eu/fhir/extension/comparator",
                            "valueCoding": {
                              "system": "https://spor.ema.europa.eu/v1/lists/100000000008",
                              "code": "100000000049",
                              "display": "equal to"
                            }
                          }
                        ]
                      },
                      "unit": "milligram(s)",
                      "system": "https://spor.ema.europa.eu/v1/lists/100000110633",
                      "code": "100000110655"
                    },
                    "denominator": {
                      "value": 1,
                      "unit": "Suppository",
                      "system": "https://spor.ema.europa.eu/v1/lists/200000000014",
                      "code": "200000002149"
                    }
                  }
                }
              ]
            }
          ]
        }
      },
      "request": {
        "method": "PUT",
        "url": "Ingredient/Panodil60mgsuppositorium-SE-PLC-Ingredient01"
      },
      "fullUrl": "https://hl7-eu.github.io/unicom-ig/branches/mpd-r4b/Ingredient/Panodil60mgsuppositorium-SE-PLC-Ingredient01"
    },
    {
      "resource": {
        "resourceType": "Ingredient",
        "id": "Panodil60mgsuppositorium-SE-PLC-Ingredient02",
        "meta": {
          "versionId": "1",
          "lastUpdated": "2022-10-23T10:54:21.485+00:00"
        },
        "status": "active",
        "for": [
          {
            "reference": "MedicinalProductDefinition/Panodil60mgsuppositorium-SE-PLC-MedicinalProductDef"
          },
          {
            "reference": "ManufacturedItemDefinition/Panodil60mgsuppositorium-SE-PLC-ManufacturedItemDef"
          },
          {
            "reference": "AdministrableProductDefinition/Panodil60mgsuppositorium-SE-PLC-AdminProductDef"
          }
        ],
        "role": {
          "coding": [
            {
              "system": "https://spor.ema.europa.eu/v1/lists/100000072050",
              "code": "100000072082",
              "display": "Excipient"
            }
          ]
        },
        "substance": {
          "code": {
            "concept": {
              "coding": [
                {
                  "system": "https://spor.ema.europa.eu/v2/SubstanceDefinition",
                  "code": "100000080166",
                  "display": "Hard fat"
                }
              ]
            }
          },
          "strength": [
            {
              "presentationRatio": {
                "numerator": {
                  "value": 5,
                  "_comparator": {
                    "extension": [
                      {
                        "url": "http://ema.europa.eu/fhir/extension/comparator",
                        "valueCoding": {
                          "system": "https://spor.ema.europa.eu/v1/lists/100000000008",
                          "code": "100000000049",
                          "display": "equal to"
                        }
                      }
                    ]
                  },
                  "unit": "milligram(s)",
                  "system": "https://spor.ema.europa.eu/v1/lists/100000110633",
                  "code": "100000110655"
                },
                "denominator": {
                  "value": 1,
                  "unit": "Suppository",
                  "system": "https://spor.ema.europa.eu/v1/lists/200000000014",
                  "code": "200000002149"
                }
              },
              "referenceStrength": [
                {
                  "substance": {
                    "concept": {
                      "coding": [
                        {
                          "system": "https://spor.ema.europa.eu/v2/SubstanceDefinition",
                          "code": "100000080166",
                          "display": "Hard fat"
                        }
                      ]
                    }
                  },
                  "strengthRatio": {
                    "numerator": {
                      "value": 5,
                      "_comparator": {
                        "extension": [
                          {
                            "url": "http://ema.europa.eu/fhir/extension/comparator",
                            "valueCoding": {
                              "system": "https://spor.ema.europa.eu/v1/lists/100000000008",
                              "code": "100000000049",
                              "display": "equal to"
                            }
                          }
                        ]
                      },
                      "unit": "milligram(s)",
                      "system": "https://spor.ema.europa.eu/v1/lists/100000110633",
                      "code": "100000110655"
                    },
                    "denominator": {
                      "value": 1,
                      "unit": "Suppository",
                      "system": "https://spor.ema.europa.eu/v1/lists/200000000014",
                      "code": "200000002149"
                    }
                  }
                }
              ]
            }
          ]
        }
      },
      "request": {
        "method": "PUT",
        "url": "Ingredient/Panodil60mgsuppositorium-SE-PLC-Ingredient02"
      },
      "fullUrl": "https://hl7-eu.github.io/unicom-ig/branches/mpd-r4b/Ingredient/Panodil60mgsuppositorium-SE-PLC-Ingredient02"
    }
  ]
}