{
  "id": "SandimmunNeoral25mgkapselmjuk-SE-PLC-MedicinalProductDef-BBDL",
  "type": "transaction",
  "resourceType": "Bundle",
  "entry": [
    {
      "resource": {
        "resourceType": "MedicinalProductDefinition",
        "id": "SandimmunNeoral25mgkapselmjuk-SE-PLC-MedicinalProductDef",
        "meta": {
          "versionId": "1",
          "lastUpdated": "2022-10-02T13:20:32.988+00:00"
        },
        "extension": [
          {
            "url": "http://ema.europa.eu/fhir/extension/authorisedDoseForm",
            "valueCoding": {
              "system": "http://spor.ema.europa.eu/v1/lists/200000000004~200000000006~200000000007~200000000008",
              "code": "100000073660",
              "display": "Capsule, soft"
            }
          }
        ],
        "identifier": [
          {
            "system": "http://ema.europa.eu/fhir/mpId",
            "value": "SE-100003469-00012308"
          },
          {
            "system": "http://ema.europa.eu/fhir/eurdId",
            "value": "745"
          }
        ],
        "domain": {
          "coding": [
            {
              "system": "http://spor.ema.europa.eu/v1/lists/100000000004",
              "code": "100000000012",
              "display": "Human use"
            }
          ]
        },
        "status": {
          "coding": [
            {
              "system": "http://spor.ema.europa.eu/v1/lists/200000005003",
              "code": "200000005004",
              "display": "Current"
            }
          ]
        },
        "indication": "Transplantationsindikationer  Organtransplantation  F\u00f6r prevention av transplantatavst\u00f6tning efter organtransplantation.  Behandling av cellmedierad transplantatavst\u00f6tning hos patienter som tidigare f\u00e5tt annan immunsuppressiv behandling.   Benm\u00e4rgstransplantation  F\u00f6r prevention av transplantatavst\u00f6tning efter allogen benm\u00e4rgs- och stamcellstransplantation.   Profylax eller behandling av graft-versus-host disease (GVHD).   Andra indikationer \u00e4n vid transplantation  Endogen uveit  Behandling av synhotande, intermedi\u00e4r eller posterior uveit av icke-infekti\u00f6st ursprung hos patienter d\u00e4r konventionell behandling sviktat eller orsakat oacceptabla biverkningar.   Behandling av Beh\u00e7ets uveit med upprepade inflammationer som drabbar retina hos patienter utan neurologiska manifestationer.   Nefrotiskt syndrom  Steroidberoende och steroidresistent nefrotiskt syndrom orsakat av prim\u00e4r glomerul\u00e4r sjukdom som \u201dminimal change\u201d-nefropati, fokal och segmentell glomeruloskleros, eller membran\u00f6s glomerulonefrit.   Sandimmun Neoral kan anv\u00e4ndas f\u00f6r att inducera och uppr\u00e4tth\u00e5lla remission. Det kan ocks\u00e5 anv\u00e4ndas f\u00f6r att uppr\u00e4tth\u00e5lla steroidinducerad remission och m\u00f6jligg\u00f6ra uts\u00e4ttning av steroidbehandling.   Reumatoid artrit  Behandling av sv\u00e5r, aktiv reumatoid artrit.   Psoriasis  Behandling av sv\u00e5r psoriasis hos patienter d\u00e4r konventionell behandling \u00e4r ol\u00e4mplig eller ineffektiv.   Atopisk dermatit  Sandimmun Neoral \u00e4r indicerat f\u00f6r patienter med sv\u00e5r atopisk dermatit n\u00e4r systemisk behandling kr\u00e4vs.",
        "legalStatusOfSupply": {
          "coding": [
            {
              "system": "http://spor.ema.europa.eu/v1/lists/100000072051",
              "code": "100000072084",
              "display": "Medicinal product subject to medical prescription"
            }
          ]
        },
        "classification": [
          {
            "coding": [
              {
                "system": "http://spor.ema.europa.eu/v1/lists/100000093533",
                "code": "100000096879",
                "display": "L04AD01"
              }
            ]
          }
        ],
        "name": [
          {
            "productName": "Sandimmun Neoral 25 mg kapsel, mjuk",
            "namePart": [
              {
                "part": "Sandimmun Neoral",
                "type": {
                  "coding": [
                    {
                      "system": "http://spor.ema.europa.eu/v1/lists/220000000000",
                      "code": "220000000003",
                      "display": "Scientific name part"
                    }
                  ]
                }
              },
              {
                "part": "25 mg",
                "type": {
                  "coding": [
                    {
                      "system": "http://spor.ema.europa.eu/v1/lists/220000000000",
                      "code": "220000000004",
                      "display": "Strength part"
                    }
                  ]
                }
              },
              {
                "part": "kapsel, mjuk",
                "type": {
                  "coding": [
                    {
                      "system": "http://spor.ema.europa.eu/v1/lists/220000000000",
                      "code": "220000000005",
                      "display": "Pharmaceutical dose form part"
                    }
                  ]
                }
              }
            ],
            "countryLanguage": [
              {
                "country": {
                  "coding": [
                    {
                      "system": "http://spor.ema.europa.eu/v1/lists/100000000002",
                      "code": "100000000535",
                      "display": "Sweden"
                    }
                  ]
                },
                "language": {
                  "coding": [
                    {
                      "system": "http://spor.ema.europa.eu/v1/lists/100000072057",
                      "code": "100000072288",
                      "display": "Swedish"
                    }
                  ]
                }
              }
            ]
          }
        ]
      },
      "request": {
        "method": "PUT",
        "url": "MedicinalProductDefinition/SandimmunNeoral25mgkapselmjuk-SE-PLC-MedicinalProductDef"
      },
      "fullUrl": "https://hl7-eu.github.io/unicom-ig/branches/mpd-r4b/MedicinalProductDefinition/SandimmunNeoral25mgkapselmjuk-SE-PLC-MedicinalProductDef"
    },
    {
      "resource": {
        "resourceType": "RegulatedAuthorization",
        "id": "SandimmunNeoral25mgkapselmjuk-SE-PLC-RegAutho",
        "meta": {
          "versionId": "1",
          "lastUpdated": "2022-10-02T13:20:33.022+00:00"
        },
        "identifier": [
          {
            "system": "http://ema.europa.eu/fhir/MarketingAuthorizationNumber",
            "value": "12308"
          }
        ],
        "subject": [
          {
            "reference": "MedicinalProductDefinition/SandimmunNeoral25mgkapselmjuk-SE-PLC-MedicinalProductDef"
          }
        ],
        "type": {
          "coding": [
            {
              "system": "http://spor.ema.europa.eu/v1/lists/220000000060",
              "code": "220000000061",
              "display": "Marketing Authorisation"
            }
          ]
        },
        "region": [
          {
            "coding": [
              {
                "system": "http://spor.ema.europa.eu/v1/lists/100000000002",
                "code": "100000000535",
                "display": "Sweden"
              }
            ]
          }
        ],
        "status": {
          "coding": [
            {
              "system": "http://spor.ema.europa.eu/v1/lists/100000072049",
              "code": "100000072099",
              "display": "Valid"
            }
          ]
        },
        "statusDate": "1994-09-09",
        "holder": {
          "identifier": {
            "system": "https://spor.ema.europa.eu/v1/locations",
            "value": "LOC-100020269"
          },
          "display": "Novartis Sverige AB"
        },
        "case": {
          "type": {
            "coding": [
              {
                "system": "http://ema.europa.eu/fhir/authorisationDateType",
                "code": "dateOfFirstAuthorisation",
                "display": "First Authorisation"
              }
            ]
          },
          "dateDateTime": "1994-09-09"
        }
      },
      "request": {
        "method": "PUT",
        "url": "RegulatedAuthorization/SandimmunNeoral25mgkapselmjuk-SE-PLC-RegAutho"
      },
      "fullUrl": "https://hl7-eu.github.io/unicom-ig/branches/mpd-r4b/RegulatedAuthorization/SandimmunNeoral25mgkapselmjuk-SE-PLC-RegAutho"
    },
    {
      "resource": {
        "resourceType": "PackagedProductDefinition",
        "id": "SandimmunNeoral25mgkapselmjuk-SE-PLC-PackageProductDef",
        "meta": {
          "versionId": "1",
          "lastUpdated": "2022-10-02T13:20:33.048+00:00"
        },
        "extension": [
          {
            "url": "http://ema.europa.eu/fhir/extension/containedItemQuantity",
            "valueQuantity": {
              "value": 50,
              "unit": "Capsule",
              "system": "http://spor.ema.europa.eu/v1/lists/200000000014",
              "code": "200000002113"
            }
          }
        ],
        "packageFor": [
          {
            "reference": "MedicinalProductDefinition/SandimmunNeoral25mgkapselmjuk-SE-PLC-MedicinalProductDef"
          }
        ],
        "description": "Blister, 50 kapslar",
        "_description": {
          "extension": [
            {
              "url": "http://ema.europa.eu/fhir/extension/language",
              "valueCoding": {
                "system": "http://spor.ema.europa.eu/v1/lists/100000072057",
                "code": "100000072288",
                "display": "Swedish"
              }
            }
          ]
        },
        "marketingStatus": [
          {
            "country": {
              "coding": [
                {
                  "system": "http://spor.ema.europa.eu/v1/lists/100000000002",
                  "code": "100000000535",
                  "display": "Sweden"
                }
              ]
            },
            "status": {
              "coding": [
                {
                  "system": "http://spor.ema.europa.eu/v1/lists/100000072052",
                  "code": "100000072083",
                  "display": "Marketed"
                }
              ]
            }
          }
        ],
        "package": {
          "type": {
            "coding": [
              {
                "system": "https://spor.ema.europa.eu/v1/lists/100000073346",
                "code": "100000073498",
                "display": "Box"
              }
            ]
          },
          "quantity": 1,
          "material": [
            {
              "coding": [
                {
                  "system": "https://spor.ema.europa.eu/v1/lists/200000003199",
                  "code": "200000003529",
                  "display": "Cardboard"
                }
              ]
            }
          ],
          "package": [
            {
              "type": {
                "coding": [
                  {
                    "system": "https://spor.ema.europa.eu/v1/lists/100000073346",
                    "code": "100000073496",
                    "display": "Blister"
                  }
                ]
              },
              "quantity": 5,
              "material": [
                {
                  "coding": [
                    {
                      "system": "https://spor.ema.europa.eu/v1/lists/200000003199",
                      "code": "200000003200",
                      "display": "Aluminium"
                    }
                  ]
                },
                {
                  "coding": [
                    {
                      "system": "https://spor.ema.europa.eu/v1/lists/200000003199",
                      "code": "200000003222",
                      "display": "PolyVinyl Chloride"
                    }
                  ]
                },
                {
                  "coding": [
                    {
                      "system": "https://spor.ema.europa.eu/v1/lists/200000003199",
                      "code": "200000003209",
                      "display": "PolyAmide"
                    }
                  ]
                }
              ],
              "containedItem": [
                {
                  "item": {
                    "reference": {
                      "reference": "ManufacturedItemDefinition/SandimmunNeoral25mgkapselmjuk-SE-PLC-ManufacturedItemDef"
                    }
                  },
                  "amount": {
                    "value": 10,
                    "unit": "Capsule",
                    "system": "http://spor.ema.europa.eu/v1/lists/100000110633~200000000014",
                    "code": "200000002113"
                  }
                }
              ]
            }
          ]
        }
      },
      "request": {
        "method": "PUT",
        "url": "PackagedProductDefinition/SandimmunNeoral25mgkapselmjuk-SE-PLC-PackageProductDef"
      },
      "fullUrl": "https://hl7-eu.github.io/unicom-ig/branches/mpd-r4b/PackagedProductDefinition/SandimmunNeoral25mgkapselmjuk-SE-PLC-PackageProductDef"
    },
    {
      "resource": {
        "resourceType": "ManufacturedItemDefinition",
        "id": "SandimmunNeoral25mgkapselmjuk-SE-PLC-ManufacturedItemDef",
        "meta": {
          "versionId": "1",
          "lastUpdated": "2022-10-02T13:20:33.071+00:00"
        },
        "status": "active",
        "manufacturedDoseForm": {
          "coding": [
            {
              "system": "http://spor.ema.europa.eu/v1/lists/200000000004",
              "code": "100000073660",
              "display": "Capsule, soft"
            }
          ]
        },
        "unitOfPresentation": {
          "coding": [
            {
              "system": "http://spor.ema.europa.eu/v1/lists/200000000014",
              "code": "200000002113",
              "display": "Capsule"
            }
          ]
        }
      },
      "request": {
        "method": "PUT",
        "url": "ManufacturedItemDefinition/SandimmunNeoral25mgkapselmjuk-SE-PLC-ManufacturedItemDef"
      },
      "fullUrl": "https://hl7-eu.github.io/unicom-ig/branches/mpd-r4b/ManufacturedItemDefinition/SandimmunNeoral25mgkapselmjuk-SE-PLC-ManufacturedItemDef"
    },
    {
      "resource": {
        "resourceType": "Ingredient",
        "id": "SandimmunNeoral25mgkapselmjuk-SE-PLC-Ingredient",
        "meta": {
          "versionId": "1",
          "lastUpdated": "2022-10-02T13:20:33.1+00:00"
        },
        "status": "active",
        "for": [
          {
            "reference": "MedicinalProductDefinition/SandimmunNeoral25mgkapselmjuk-SE-PLC-MedicinalProductDef"
          },
          {
            "reference": "ManufacturedItemDefinition/SandimmunNeoral25mgkapselmjuk-SE-PLC-ManufacturedItemDef"
          },
          {
            "reference": "AdministrableProductDefinition/SandimmunNeoral25mgkapselmjuk-SE-PLC-AdminProductDef"
          }
        ],
        "role": {
          "coding": [
            {
              "system": "https://spor.ema.europa.eu/v1/lists/100000072050",
              "code": "100000072072",
              "display": "Active"
            }
          ]
        },
        "substance": {
          "code": {
            "concept": {
              "coding": [
                {
                  "system": "https://spor.ema.europa.eu/v2/SubstanceDefinition",
                  "code": "100000092121",
                  "display": "Ciclosporin"
                }
              ]
            }
          },
          "strength": [
            {
              "presentationRatio": {
                "numerator": {
                  "value": 25,
                  "_comparator": {
                    "extension": [
                      {
                        "url": "http://ema.europa.eu/fhir/extension/comparator",
                        "valueCoding": {
                          "system": "https://spor.ema.europa.eu/v1/lists/100000000008",
                          "code": "100000000049",
                          "display": "equal to"
                        }
                      }
                    ]
                  },
                  "unit": "milligram(s)",
                  "system": "https://spor.ema.europa.eu/v1/lists/100000110633",
                  "code": "100000110655"
                },
                "denominator": {
                  "value": 1,
                  "unit": "Capsule",
                  "system": "https://spor.ema.europa.eu/v1/lists/200000000014",
                  "code": "200000002113"
                }
              },
              "referenceStrength": [
                {
                  "substance": {
                    "concept": {
                      "coding": [
                        {
                          "system": "https://spor.ema.europa.eu/v2/SubstanceDefinition",
                          "code": "100000092121",
                          "display": "Ciclosporin"
                        }
                      ]
                    }
                  },
                  "strengthRatio": {
                    "numerator": {
                      "value": 25,
                      "_comparator": {
                        "extension": [
                          {
                            "url": "http://ema.europa.eu/fhir/extension/comparator",
                            "valueCoding": {
                              "system": "https://spor.ema.europa.eu/v1/lists/100000000008",
                              "code": "100000000049",
                              "display": "equal to"
                            }
                          }
                        ]
                      },
                      "unit": "milligram(s)",
                      "system": "https://spor.ema.europa.eu/v1/lists/100000110633",
                      "code": "100000110655"
                    },
                    "denominator": {
                      "value": 1,
                      "unit": "Capsule",
                      "system": "https://spor.ema.europa.eu/v1/lists/200000000014",
                      "code": "200000002113"
                    }
                  }
                }
              ]
            }
          ]
        }
      },
      "request": {
        "method": "PUT",
        "url": "Ingredient/SandimmunNeoral25mgkapselmjuk-SE-PLC-Ingredient"
      },
      "fullUrl": "https://hl7-eu.github.io/unicom-ig/branches/mpd-r4b/Ingredient/SandimmunNeoral25mgkapselmjuk-SE-PLC-Ingredient"
    }
  ]
}