{
  "id": "Sendolor-1mgml-InfSolution-SE-BS-MedicinalProductDefinition-BBDL",
  "type": "transaction",
  "resourceType": "Bundle",
  "entry": [
    {
      "resource": {
        "resourceType": "MedicinalProductDefinition",
        "id": "Sendolor-1mgml-InfSolution-SE-BS-MedicinalProductDefinition",
        "meta": {
          "versionId": "1",
          "lastUpdated": "2022-11-04T19:34:32.8+00:00"
        },
        "extension": [
          {
            "url": "http://ema.europa.eu/fhir/extension/authorisedDoseForm",
            "valueCoding": {
              "system": "http://spor.ema.europa.eu/v1/lists/200000000004~200000000006~200000000007~200000000008",
              "code": "100000073870",
              "display": "Solution for infusion"
            }
          }
        ],
        "identifier": [
          {
            "system": "http://ema.europa.eu/fhir/mpId",
            "value": "SE-100000706-00054375"
          },
          {
            "system": "http://ema.europa.eu/fhir/eurdId",
            "value": "10549"
          }
        ],
        "domain": {
          "coding": [
            {
              "system": "http://spor.ema.europa.eu/v1/lists/100000000004",
              "code": "100000000012",
              "display": "Human use"
            }
          ]
        },
        "status": {
          "coding": [
            {
              "system": "http://spor.ema.europa.eu/v1/lists/200000005003",
              "code": "200000005004",
              "display": "Current"
            }
          ]
        },
        "indication": "Sendolor \u00e4r indikerat f\u00f6r behandling av sv\u00e5r akut sm\u00e4rta, sm\u00e4rta vid cancer och genombrottssm\u00e4rta vid cancer.",
        "legalStatusOfSupply": {
          "coding": [
            {
              "system": "http://spor.ema.europa.eu/v1/lists/100000072051",
              "code": "100000072085",
              "display": "Medicinal product subject to special medical prescription"
            }
          ]
        },
        "classification": [
          {
            "coding": [
              {
                "system": "http://spor.ema.europa.eu/v1/lists/100000093533",
                "code": "100000097139",
                "display": "N02AA01"
              }
            ]
          }
        ],
        "name": [
          {
            "productName": "Sendolor 1 mg/ml infusionsv\u00e4tska, l\u00f6sning",
            "namePart": [
              {
                "part": "Sendolor",
                "type": {
                  "coding": [
                    {
                      "system": "http://spor.ema.europa.eu/v1/lists/220000000000",
                      "code": "220000000002",
                      "display": "Invented name part"
                    }
                  ]
                }
              },
              {
                "part": "1 mg/ml",
                "type": {
                  "coding": [
                    {
                      "system": "http://spor.ema.europa.eu/v1/lists/220000000000",
                      "code": "220000000004",
                      "display": "Strength part"
                    }
                  ]
                }
              },
              {
                "part": "Injektionsv\u00e4tska, l\u00f6sning",
                "type": {
                  "coding": [
                    {
                      "system": "http://spor.ema.europa.eu/v1/lists/220000000000",
                      "code": "220000000005",
                      "display": "Pharmaceutical dose form part"
                    }
                  ]
                }
              }
            ],
            "countryLanguage": [
              {
                "country": {
                  "coding": [
                    {
                      "system": "http://spor.ema.europa.eu/v1/lists/100000000002",
                      "code": "100000000535",
                      "display": "Sweden"
                    }
                  ]
                },
                "language": {
                  "coding": [
                    {
                      "system": "http://spor.ema.europa.eu/v1/lists/100000072057",
                      "code": "100000072288",
                      "display": "Swedish"
                    }
                  ]
                }
              }
            ]
          }
        ]
      },
      "request": {
        "method": "PUT",
        "url": "MedicinalProductDefinition/Sendolor-1mgml-InfSolution-SE-BS-MedicinalProductDefinition"
      },
      "fullUrl": "https://hl7-eu.github.io/unicom-ig/branches/mpd-r4b/MedicinalProductDefinition/Sendolor-1mgml-InfSolution-SE-BS-MedicinalProductDefinition"
    },
    {
      "resource": {
        "resourceType": "RegulatedAuthorization",
        "id": "Sendolor-1mgml-InfSolution-SE-BS-RegulatedAuthorization",
        "meta": {
          "versionId": "1",
          "lastUpdated": "2022-11-04T19:34:32.843+00:00"
        },
        "identifier": [
          {
            "system": "http://ema.europa.eu/fhir/MarketingAuthorizationNumber",
            "value": "54375"
          }
        ],
        "subject": [
          {
            "reference": "MedicinalProductDefinition/Sendolor-1mgml-InfSolution-SE-BS-MedicinalProductDefinition"
          }
        ],
        "type": {
          "coding": [
            {
              "system": "http://spor.ema.europa.eu/v1/lists/220000000060",
              "code": "220000000061",
              "display": "Marketing Authorisation"
            }
          ]
        },
        "region": [
          {
            "coding": [
              {
                "system": "http://spor.ema.europa.eu/v1/lists/100000000002",
                "code": "100000000535",
                "display": "Sweden"
              }
            ]
          }
        ],
        "status": {
          "coding": [
            {
              "system": "http://spor.ema.europa.eu/v1/lists/100000072049",
              "code": "100000072099",
              "display": "Valid"
            }
          ]
        },
        "statusDate": "2017-06-20",
        "holder": {
          "identifier": {
            "system": "https://spor.ema.europa.eu/v1/locations",
            "value": "LOC-100007043"
          },
          "display": "Eurocept International B.V"
        },
        "case": {
          "type": {
            "coding": [
              {
                "system": "http://ema.europa.eu/fhir/authorisationDateType",
                "code": "dateOfFirstAuthorisation",
                "display": "First Authorisation"
              }
            ]
          },
          "dateDateTime": "2017-06-20"
        }
      },
      "request": {
        "method": "PUT",
        "url": "RegulatedAuthorization/Sendolor-1mgml-InfSolution-SE-BS-RegulatedAuthorization"
      },
      "fullUrl": "https://hl7-eu.github.io/unicom-ig/branches/mpd-r4b/RegulatedAuthorization/Sendolor-1mgml-InfSolution-SE-BS-RegulatedAuthorization"
    },
    {
      "resource": {
        "resourceType": "PackagedProductDefinition",
        "id": "Sendolor-1mgml-InfSolution-SE-BS-PackagedProductDefinition",
        "meta": {
          "versionId": "1",
          "lastUpdated": "2022-11-04T19:34:32.873+00:00"
        },
        "extension": [
          {
            "url": "http://ema.europa.eu/fhir/extension/containedItemQuantity",
            "valueQuantity": {
              "value": 1,
              "unit": "Bag",
              "system": "http://spor.ema.europa.eu/v1/lists/200000000014",
              "code": "200000002166"
            }
          }
        ],
        "packageFor": [
          {
            "reference": "MedicinalProductDefinition/Sendolor-1mgml-InfSolution-SE-BS-MedicinalProductDefinition"
          }
        ],
        "description": "P\u00e5se, 100 ml",
        "_description": {
          "extension": [
            {
              "url": "http://ema.europa.eu/fhir/extension/language",
              "valueCoding": {
                "system": "http://spor.ema.europa.eu/v1/lists/100000072057",
                "code": "100000072288",
                "display": "Swedish"
              }
            }
          ]
        },
        "marketingStatus": [
          {
            "country": {
              "coding": [
                {
                  "system": "http://spor.ema.europa.eu/v1/lists/100000000002",
                  "code": "100000000535",
                  "display": "Sweden"
                }
              ]
            },
            "status": {
              "coding": [
                {
                  "system": "http://spor.ema.europa.eu/v1/lists/100000072052",
                  "code": "100000072083",
                  "display": "Marketed"
                }
              ]
            }
          }
        ],
        "package": {
          "type": {
            "coding": [
              {
                "system": "https://spor.ema.europa.eu/v1/lists/100000073346",
                "code": "100000073498",
                "display": "Box"
              }
            ]
          },
          "quantity": 1,
          "material": [
            {
              "coding": [
                {
                  "system": "https://spor.ema.europa.eu/v1/lists/200000003199",
                  "code": "200000003529",
                  "display": "Cardboard"
                }
              ]
            }
          ],
          "package": [
            {
              "type": {
                "coding": [
                  {
                    "system": "https://spor.ema.europa.eu/v1/lists/100000073346",
                    "code": "200000002166",
                    "display": "Bag"
                  }
                ]
              },
              "quantity": 1,
              "material": [
                {
                  "coding": [
                    {
                      "system": "https://spor.ema.europa.eu/v1/lists/200000003199",
                      "code": "200000003217",
                      "display": "PolyEthylene TerePhthalate"
                    }
                  ]
                }
              ],
              "package": [
                {
                  "type": {
                    "coding": [
                      {
                        "system": "https://spor.ema.europa.eu/v1/lists/100000073346",
                        "code": "200000002166",
                        "display": "Bag"
                      }
                    ]
                  },
                  "quantity": 1,
                  "material": [
                    {
                      "coding": [
                        {
                          "system": "https://spor.ema.europa.eu/v1/lists/200000003199",
                          "code": "200000003219",
                          "display": "PolyPropylene"
                        }
                      ]
                    }
                  ],
                  "containedItem": [
                    {
                      "item": {
                        "reference": {
                          "reference": "ManufacturedItemDefinition/Sendolor-1mgml-InfSolution-SE-BS-ManufacturedItemDefinition"
                        }
                      },
                      "amount": {
                        "value": 100,
                        "unit": "millilitre(s)",
                        "system": "http://spor.ema.europa.eu/v1/lists/100000110633~200000000014",
                        "code": "100000110662"
                      }
                    }
                  ]
                }
              ]
            }
          ]
        }
      },
      "request": {
        "method": "PUT",
        "url": "PackagedProductDefinition/Sendolor-1mgml-InfSolution-SE-BS-PackagedProductDefinition"
      },
      "fullUrl": "https://hl7-eu.github.io/unicom-ig/branches/mpd-r4b/PackagedProductDefinition/Sendolor-1mgml-InfSolution-SE-BS-PackagedProductDefinition"
    },
    {
      "resource": {
        "resourceType": "ManufacturedItemDefinition",
        "id": "Sendolor-1mgml-InfSolution-SE-BS-ManufacturedItemDefinition",
        "meta": {
          "versionId": "1",
          "lastUpdated": "2022-11-04T19:34:32.888+00:00"
        },
        "status": "active",
        "manufacturedDoseForm": {
          "coding": [
            {
              "system": "http://spor.ema.europa.eu/v1/lists/200000000004",
              "code": "100000073870",
              "display": "Solution for infusion"
            }
          ]
        },
        "unitOfPresentation": {
          "coding": [
            {
              "system": "http://spor.ema.europa.eu/v1/lists/200000000014",
              "code": "200000002166",
              "display": "Bag"
            }
          ]
        }
      },
      "request": {
        "method": "PUT",
        "url": "ManufacturedItemDefinition/Sendolor-1mgml-InfSolution-SE-BS-ManufacturedItemDefinition"
      },
      "fullUrl": "https://hl7-eu.github.io/unicom-ig/branches/mpd-r4b/ManufacturedItemDefinition/Sendolor-1mgml-InfSolution-SE-BS-ManufacturedItemDefinition"
    },
    {
      "resource": {
        "resourceType": "Ingredient",
        "id": "Sendolor-1mgml-InfSolution-SE-BS-Ingredient",
        "meta": {
          "versionId": "1",
          "lastUpdated": "2022-11-04T19:34:32.899+00:00"
        },
        "status": "active",
        "for": [
          {
            "reference": "MedicinalProductDefinition/Sendolor-1mgml-InfSolution-SE-BS-MedicinalProductDefinition"
          },
          {
            "reference": "ManufacturedItemDefinition/Sendolor-1mgml-InfSolution-SE-BS-ManufacturedItemDefinition"
          },
          {
            "reference": "AdministrableProductDefinition/Sendolor-1mgml-InfSolution-SE-BS-AdministrableProductDefinition"
          }
        ],
        "role": {
          "coding": [
            {
              "system": "http://spor.ema.europa.eu/v1/lists/100000072050",
              "code": "100000072072",
              "display": "Active"
            }
          ]
        },
        "substance": {
          "code": {
            "concept": {
              "coding": [
                {
                  "system": "http://spor.azure-api.net/sms/api/v2/SubstanceDefinition",
                  "code": "100000090494",
                  "display": "Morphine hydrochloride"
                }
              ]
            }
          },
          "strength": [
            {
              "concentrationRatio": {
                "numerator": {
                  "value": 1,
                  "_comparator": {
                    "extension": [
                      {
                        "url": "http://ema.europa.eu/fhir/extension/comparator",
                        "valueCoding": {
                          "system": "https://spor.ema.europa.eu/v1/lists/100000000008",
                          "code": "100000000049",
                          "display": "equal to"
                        }
                      }
                    ]
                  },
                  "unit": "milligram(s)",
                  "system": "http://spor.ema.europa.eu/v1/lists/100000110633",
                  "code": "100000110655"
                },
                "denominator": {
                  "value": 1,
                  "unit": "millilitre(s)",
                  "system": "http://spor.ema.europa.eu/v1/lists/100000110633",
                  "code": "100000110662"
                }
              },
              "referenceStrength": [
                {
                  "substance": {
                    "concept": {
                      "coding": [
                        {
                          "system": "https://spor.ema.europa.eu/v2/SubstanceDefinition",
                          "code": "100000091372",
                          "display": "Morphine"
                        }
                      ]
                    }
                  },
                  "strengthRatio": {
                    "numerator": {
                      "value": 0.7659,
                      "_comparator": {
                        "extension": [
                          {
                            "url": "http://ema.europa.eu/fhir/extension/comparator",
                            "valueCoding": {
                              "system": "https://spor.ema.europa.eu/v1/lists/100000000008",
                              "code": "100000000049",
                              "display": "equal to"
                            }
                          }
                        ]
                      },
                      "unit": "milligram(s)",
                      "system": "https://spor.ema.europa.eu/v1/lists/100000110633",
                      "code": "100000110655"
                    },
                    "denominator": {
                      "value": 1,
                      "unit": "millilitre(s)",
                      "system": "http://spor.ema.europa.eu/v1/lists/100000110633",
                      "code": "100000110662"
                    }
                  }
                }
              ]
            }
          ]
        }
      },
      "request": {
        "method": "PUT",
        "url": "Ingredient/Sendolor-1mgml-InfSolution-SE-BS-Ingredient"
      },
      "fullUrl": "https://hl7-eu.github.io/unicom-ig/branches/mpd-r4b/Ingredient/Sendolor-1mgml-InfSolution-SE-BS-Ingredient"
    }
  ]
}