{
  "id": "Smofkabiven-Emulsion-SE-IS-MedicinalProductDefinition-BBDL",
  "type": "transaction",
  "resourceType": "Bundle",
  "entry": [
    {
      "resource": {
        "resourceType": "MedicinalProductDefinition",
        "id": "Smofkabiven-Emulsion-SE-IS-MedicinalProductDefinition",
        "meta": {
          "versionId": "1",
          "lastUpdated": "2022-10-29T06:44:56.792+00:00"
        },
        "extension": [
          {
            "url": "http://ema.europa.eu/fhir/extension/authorisedDoseForm",
            "valueCoding": {
              "system": "http://spor.ema.europa.eu/v1/lists/200000000006",
              "code": "100000075575",
              "display": "Solution for infusion in administration system"
            }
          },
          {
            "url": "http://ema.europa.eu/fhir/extension/authorisedDoseForm",
            "valueCoding": {
              "system": "http://spor.ema.europa.eu/v1/lists/200000000006",
              "code": "100000172025",
              "display": "Emulsion for infusion in administration system"
            }
          }
        ],
        "identifier": [
          {
            "system": "http://ema.europa.eu/fhir/mpId",
            "value": "SE-100001206-00022810"
          },
          {
            "system": "http://ema.europa.eu/fhir/eurdId",
            "value": "10565"
          }
        ],
        "domain": {
          "coding": [
            {
              "system": "http://spor.ema.europa.eu/v1/lists/100000000004",
              "code": "100000000012",
              "display": "Human use"
            }
          ]
        },
        "status": {
          "coding": [
            {
              "system": "http://spor.ema.europa.eu/v1/lists/200000005003",
              "code": "200000005004",
              "display": "Current"
            }
          ]
        },
        "indication": "Parenteral nutrition till vuxna och barn som \u00e4r 2 \u00e5r eller \u00e4ldre n\u00e4r oral eller enteral nutrition \u00e4r om\u00f6jlig, otillr\u00e4cklig eller kontraindicerad.",
        "legalStatusOfSupply": {
          "coding": [
            {
              "system": "http://spor.ema.europa.eu/v1/lists/100000072051",
              "code": "100000072084",
              "display": "Medicinal product subject to medical prescription"
            }
          ]
        },
        "classification": [
          {
            "coding": [
              {
                "system": "http://spor.ema.europa.eu/v1/lists/100000116677",
                "code": "100000093533",
                "display": "B05BA10"
              }
            ]
          }
        ],
        "name": [
          {
            "productName": "SmofKabiven Infusionsv\u00e4tska, emulsion",
            "namePart": [
              {
                "part": "SmofKabiven",
                "type": {
                  "coding": [
                    {
                      "system": "http://spor.ema.europa.eu/v1/lists/220000000000",
                      "code": "220000000002",
                      "display": "Invented name part"
                    }
                  ]
                }
              },
              {
                "part": "Infusionsv\u00e4tska, emulsion",
                "type": {
                  "coding": [
                    {
                      "system": "http://spor.ema.europa.eu/v1/lists/220000000000",
                      "code": "220000000005",
                      "display": "Pharmaceutical dose form part"
                    }
                  ]
                }
              }
            ],
            "countryLanguage": [
              {
                "country": {
                  "coding": [
                    {
                      "system": "http://spor.ema.europa.eu/v1/lists/100000000002",
                      "code": "100000000535",
                      "display": "Sweden"
                    }
                  ]
                },
                "language": {
                  "coding": [
                    {
                      "system": "http://spor.ema.europa.eu/v1/lists/100000072057",
                      "code": "100000072288",
                      "display": "Swedish"
                    }
                  ]
                }
              }
            ]
          }
        ]
      },
      "request": {
        "method": "PUT",
        "url": "MedicinalProductDefinition/Smofkabiven-Emulsion-SE-IS-MedicinalProductDefinition"
      },
      "fullUrl": "https://hl7-eu.github.io/unicom-ig/branches/mpd-r4b/MedicinalProductDefinition/Smofkabiven-Emulsion-SE-IS-MedicinalProductDefinition"
    },
    {
      "resource": {
        "resourceType": "RegulatedAuthorization",
        "id": "Smofkabiven-Emulsion-SE-IS-RegulatedAuthorization",
        "meta": {
          "versionId": "1",
          "lastUpdated": "2022-10-29T06:44:56.811+00:00"
        },
        "identifier": [
          {
            "system": "http://ema.europa.eu/fhir/MarketingAuthorizationNumber",
            "value": "22810"
          }
        ],
        "subject": [
          {
            "reference": "MedicinalProductDefinition/Smofkabiven-Emulsion-SE-IS-MedicinalProductDefinition"
          }
        ],
        "type": {
          "coding": [
            {
              "system": "http://spor.ema.europa.eu/v1/lists/220000000060",
              "code": "220000000061",
              "display": "Marketing Authorisation"
            }
          ]
        },
        "region": [
          {
            "coding": [
              {
                "system": "http://spor.ema.europa.eu/v1/lists/100000000002",
                "code": "100000000535",
                "display": "Sweden"
              }
            ]
          }
        ],
        "status": {
          "coding": [
            {
              "system": "http://spor.ema.europa.eu/v1/lists/100000072049",
              "code": "100000072099",
              "display": "Valid"
            }
          ]
        },
        "statusDate": "2007-06-21",
        "holder": {
          "identifier": {
            "system": "https://spor.ema.europa.eu/v1/locations",
            "value": "LOC-100061982"
          },
          "display": "Fresenius Kabi AB"
        },
        "case": {
          "type": {
            "coding": [
              {
                "system": "http://ema.europa.eu/fhir/authorisationDateType",
                "code": "dateOfFirstAuthorisation",
                "display": "First Authorisation"
              }
            ]
          },
          "dateDateTime": "2007-06-21"
        }
      },
      "request": {
        "method": "PUT",
        "url": "RegulatedAuthorization/Smofkabiven-Emulsion-SE-IS-RegulatedAuthorization"
      },
      "fullUrl": "https://hl7-eu.github.io/unicom-ig/branches/mpd-r4b/RegulatedAuthorization/Smofkabiven-Emulsion-SE-IS-RegulatedAuthorization"
    },
    {
      "resource": {
        "resourceType": "PackagedProductDefinition",
        "id": "Smofkabiven-Emulsion-SE-IS-PackagedProductDefinition01",
        "meta": {
          "versionId": "1",
          "lastUpdated": "2022-10-29T06:44:56.837+00:00"
        },
        "extension": [
          {
            "url": "http://ema.europa.eu/fhir/extension/containedItemQuantity",
            "valueQuantity": {
              "value": 3,
              "unit": "Sachet",
              "system": "http://spor.ema.europa.eu/v1/lists/200000000014",
              "code": "200000002143"
            }
          }
        ],
        "packageFor": [
          {
            "reference": "MedicinalProductDefinition/Smofkabiven-Emulsion-SE-IS-MedicinalProductDefinition"
          }
        ],
        "description": "Trekammarp\u00e5se, 3 x 2463 ml (Biofine)",
        "_description": {
          "extension": [
            {
              "url": "http://ema.europa.eu/fhir/extension/language",
              "valueCoding": {
                "system": "http://spor.ema.europa.eu/v1/lists/100000072057",
                "code": "100000072288",
                "display": "Swedish"
              }
            }
          ]
        },
        "marketingStatus": [
          {
            "country": {
              "coding": [
                {
                  "system": "http://spor.ema.europa.eu/v1/lists/100000000002",
                  "code": "100000000535",
                  "display": "Sweden"
                }
              ]
            },
            "status": {
              "coding": [
                {
                  "system": "http://spor.ema.europa.eu/v1/lists/100000072052",
                  "code": "100000072083",
                  "display": "Marketed"
                }
              ]
            }
          }
        ],
        "package": {
          "type": {
            "coding": [
              {
                "system": "https://spor.ema.europa.eu/v1/lists/100000073346",
                "code": "100000073498",
                "display": "Box"
              }
            ]
          },
          "quantity": 1,
          "material": [
            {
              "coding": [
                {
                  "system": "https://spor.ema.europa.eu/v1/lists/200000003199",
                  "code": "200000003529",
                  "display": "Cardboard"
                }
              ]
            }
          ],
          "shelfLifeStorage": [
            {
              "type": {
                "coding": [
                  {
                    "system": "https://spor.ema.europa.eu/v1/lists/100000073343",
                    "code": "100000073403",
                    "display": "Shelf life of the medicinal product as packaged for sale"
                  }
                ]
              },
              "periodDuration": {
                "value": 2,
                "unit": "years"
              },
              "specialPrecautionsForStorage": [
                {
                  "coding": [
                    {
                      "system": "https://spor.ema.europa.eu/v1/lists/100000073344",
                      "code": "100000073410",
                      "display": "Do not store above 25 \u00b0C"
                    }
                  ]
                },
                {
                  "coding": [
                    {
                      "system": "https://spor.ema.europa.eu/v1/lists/100000073344",
                      "code": "100000073421",
                      "display": "Store in the original package"
                    }
                  ]
                },
                {
                  "coding": [
                    {
                      "system": "https://spor.ema.europa.eu/v1/lists/100000073344",
                      "code": "100000073420",
                      "display": "Do not freeze"
                    }
                  ]
                }
              ]
            },
            {
              "type": {
                "coding": [
                  {
                    "system": "https://spor.ema.europa.eu/v1/lists/100000073343",
                    "code": "100000073405",
                    "display": "Shelf life after dilution or reconstitution according to directions"
                  }
                ]
              },
              "periodDuration": {
                "value": 24,
                "unit": "hours"
              },
              "specialPrecautionsForStorage": [
                {
                  "coding": [
                    {
                      "system": "https://spor.ema.europa.eu/v1/lists/100000073344",
                      "code": "100000073414",
                      "display": "Store in a refrigerator (2\u00b0C \u2013 8\u00b0C)"
                    }
                  ]
                }
              ]
            }
          ],
          "package": [
            {
              "type": {
                "coding": [
                  {
                    "system": "https://spor.ema.europa.eu/v1/lists/100000073346",
                    "code": "100000073540",
                    "display": "Pouch"
                  }
                ]
              },
              "quantity": 1,
              "material": [
                {
                  "coding": [
                    {
                      "system": "https://spor.ema.europa.eu/v1/lists/200000003199",
                      "code": "200000003208",
                      "display": "Plastic"
                    }
                  ]
                }
              ],
              "package": [
                {
                  "type": {
                    "coding": [
                      {
                        "system": "https://spor.ema.europa.eu/v1/lists/100000073346",
                        "code": "100000075664",
                        "display": "Administration system"
                      },
                      {
                        "system": "https://spor.ema.europa.eu/v1/lists/100000073346",
                        "code": "100000073493",
                        "display": "Bag"
                      }
                    ]
                  },
                  "quantity": 1,
                  "material": [
                    {
                      "coding": [
                        {
                          "system": "https://spor.ema.europa.eu/v1/lists/200000003199",
                          "code": "200000003208",
                          "display": "Plastic"
                        }
                      ]
                    }
                  ],
                  "package": [
                    {
                      "type": {
                        "coding": [
                          {
                            "system": "https://spor.ema.europa.eu/v1/lists/100000073346",
                            "code": "200000002143",
                            "display": "Sachet"
                          }
                        ]
                      },
                      "quantity": 1,
                      "material": [
                        {
                          "coding": [
                            {
                              "system": "https://spor.ema.europa.eu/v1/lists/200000003199",
                              "code": "200000003208",
                              "display": "Plastic"
                            }
                          ]
                        }
                      ],
                      "containedItem": [
                        {
                          "item": {
                            "reference": {
                              "reference": "ManufacturedItemDefinition/Smofkabiven-Emulsion-SE-IS-ManufacturedItemDefinition"
                            }
                          },
                          "amount": {
                            "value": 1250,
                            "unit": "milligram(s)",
                            "system": "http://spor.ema.europa.eu/v1/lists/200000000014",
                            "code": "100000110655"
                          }
                        }
                      ]
                    },
                    {
                      "type": {
                        "coding": [
                          {
                            "system": "https://spor.ema.europa.eu/v1/lists/100000073346",
                            "code": "200000002143",
                            "display": "Sachet"
                          }
                        ]
                      },
                      "quantity": 1,
                      "material": [
                        {
                          "coding": [
                            {
                              "system": "https://spor.ema.europa.eu/v1/lists/200000003199",
                              "code": "200000003208",
                              "display": "Plastic"
                            }
                          ]
                        }
                      ],
                      "containedItem": [
                        {
                          "item": {
                            "reference": {
                              "reference": "ManufacturedItemDefinition/Smofkabiven-Emulsion-SE-IS-ManufacturedItemDefinition"
                            }
                          },
                          "amount": {
                            "value": 469,
                            "unit": "milligram(s)",
                            "system": "http://spor.ema.europa.eu/v1/lists/200000000014",
                            "code": "100000110655"
                          }
                        }
                      ]
                    },
                    {
                      "type": {
                        "coding": [
                          {
                            "system": "https://spor.ema.europa.eu/v1/lists/100000073346",
                            "code": "200000002143",
                            "display": "Sachet"
                          }
                        ]
                      },
                      "quantity": 1,
                      "material": [
                        {
                          "coding": [
                            {
                              "system": "https://spor.ema.europa.eu/v1/lists/200000003199",
                              "code": "200000003208",
                              "display": "Plastic"
                            }
                          ]
                        }
                      ],
                      "containedItem": [
                        {
                          "item": {
                            "reference": {
                              "reference": "ManufacturedItemDefinition/Smofkabiven-Emulsion-SE-IS-ManufacturedItemDefinition"
                            }
                          },
                          "amount": {
                            "value": 744,
                            "unit": "milligram(s)",
                            "system": "http://spor.ema.europa.eu/v1/lists/200000000014",
                            "code": "100000110655"
                          }
                        }
                      ]
                    }
                  ]
                }
              ]
            }
          ]
        }
      },
      "request": {
        "method": "PUT",
        "url": "PackagedProductDefinition/Smofkabiven-Emulsion-SE-IS-PackagedProductDefinition01"
      },
      "fullUrl": "https://hl7-eu.github.io/unicom-ig/branches/mpd-r4b/PackagedProductDefinition/Smofkabiven-Emulsion-SE-IS-PackagedProductDefinition01"
    },
    {
      "resource": {
        "resourceType": "PackagedProductDefinition",
        "id": "Smofkabiven-Emulsion-SE-IS-PackagedProductDefinition02",
        "meta": {
          "versionId": "1",
          "lastUpdated": "2022-10-29T06:44:56.851+00:00"
        },
        "extension": [
          {
            "url": "http://ema.europa.eu/fhir/extension/containedItemQuantity",
            "valueQuantity": {
              "value": 3,
              "unit": "Sachet",
              "system": "http://spor.ema.europa.eu/v1/lists/200000000014",
              "code": "200000002143"
            }
          }
        ],
        "packageFor": [
          {
            "reference": "MedicinalProductDefinition/Smofkabiven-Emulsion-SE-IS-MedicinalProductDefinition"
          }
        ],
        "description": "Trekammarp\u00e5se, 4 x 1477 ml (Biofine)",
        "_description": {
          "extension": [
            {
              "url": "http://ema.europa.eu/fhir/extension/language",
              "valueCoding": {
                "system": "http://spor.ema.europa.eu/v1/lists/100000072057",
                "code": "100000072288",
                "display": "Swedish"
              }
            }
          ]
        },
        "marketingStatus": [
          {
            "country": {
              "coding": [
                {
                  "system": "http://spor.ema.europa.eu/v1/lists/100000000002",
                  "code": "100000000535",
                  "display": "Sweden"
                }
              ]
            },
            "status": {
              "coding": [
                {
                  "system": "http://spor.ema.europa.eu/v1/lists/100000072052",
                  "code": "100000072083",
                  "display": "Marketed"
                }
              ]
            }
          }
        ],
        "package": {
          "type": {
            "coding": [
              {
                "system": "https://spor.ema.europa.eu/v1/lists/100000073346",
                "code": "100000073498",
                "display": "Box"
              }
            ]
          },
          "quantity": 1,
          "material": [
            {
              "coding": [
                {
                  "system": "https://spor.ema.europa.eu/v1/lists/200000003199",
                  "code": "200000003529",
                  "display": "Cardboard"
                }
              ]
            }
          ],
          "shelfLifeStorage": [
            {
              "type": {
                "coding": [
                  {
                    "system": "https://spor.ema.europa.eu/v1/lists/100000073343",
                    "code": "100000073403",
                    "display": "Shelf life of the medicinal product as packaged for sale"
                  }
                ]
              },
              "periodDuration": {
                "value": 2,
                "unit": "years"
              },
              "specialPrecautionsForStorage": [
                {
                  "coding": [
                    {
                      "system": "https://spor.ema.europa.eu/v1/lists/100000073344",
                      "code": "100000073410",
                      "display": "Do not store above 25 \u00b0C"
                    }
                  ]
                },
                {
                  "coding": [
                    {
                      "system": "https://spor.ema.europa.eu/v1/lists/100000073344",
                      "code": "100000073421",
                      "display": "Store in the original package"
                    }
                  ]
                },
                {
                  "coding": [
                    {
                      "system": "https://spor.ema.europa.eu/v1/lists/100000073344",
                      "code": "100000073420",
                      "display": "Do not freeze"
                    }
                  ]
                }
              ]
            },
            {
              "type": {
                "coding": [
                  {
                    "system": "https://spor.ema.europa.eu/v1/lists/100000073343",
                    "code": "100000073405",
                    "display": "Shelf life after dilution or reconstitution according to directions"
                  }
                ]
              },
              "periodDuration": {
                "value": 24,
                "unit": "hours"
              },
              "specialPrecautionsForStorage": [
                {
                  "coding": [
                    {
                      "system": "https://spor.ema.europa.eu/v1/lists/100000073344",
                      "code": "100000073414",
                      "display": "Store in a refrigerator (2\u00b0C \u2013 8\u00b0C)"
                    }
                  ]
                }
              ]
            }
          ],
          "package": [
            {
              "type": {
                "coding": [
                  {
                    "system": "https://spor.ema.europa.eu/v1/lists/100000073346",
                    "code": "100000073540",
                    "display": "Pouch"
                  }
                ]
              },
              "quantity": 1,
              "material": [
                {
                  "coding": [
                    {
                      "system": "https://spor.ema.europa.eu/v1/lists/200000003199",
                      "code": "200000003208",
                      "display": "Plastic"
                    }
                  ]
                }
              ],
              "package": [
                {
                  "type": {
                    "coding": [
                      {
                        "system": "https://spor.ema.europa.eu/v1/lists/100000073346",
                        "code": "100000075664",
                        "display": "Administration system"
                      },
                      {
                        "system": "https://spor.ema.europa.eu/v1/lists/100000073346",
                        "code": "100000073493",
                        "display": "Bag"
                      }
                    ]
                  },
                  "quantity": 1,
                  "material": [
                    {
                      "coding": [
                        {
                          "system": "https://spor.ema.europa.eu/v1/lists/200000003199",
                          "code": "200000003208",
                          "display": "Plastic"
                        }
                      ]
                    }
                  ],
                  "package": [
                    {
                      "type": {
                        "coding": [
                          {
                            "system": "https://spor.ema.europa.eu/v1/lists/100000073346",
                            "code": "200000002143",
                            "display": "Sachet"
                          }
                        ]
                      },
                      "quantity": 1,
                      "material": [
                        {
                          "coding": [
                            {
                              "system": "https://spor.ema.europa.eu/v1/lists/200000003199",
                              "code": "200000003208",
                              "display": "Plastic"
                            }
                          ]
                        }
                      ],
                      "containedItem": [
                        {
                          "item": {
                            "reference": {
                              "reference": "ManufacturedItemDefinition/Smofkabiven-Emulsion-SE-IS-ManufacturedItemDefinition"
                            }
                          },
                          "amount": {
                            "value": 750,
                            "unit": "milligram(s)",
                            "system": "http://spor.ema.europa.eu/v1/lists/200000000014",
                            "code": "100000110655"
                          }
                        }
                      ]
                    },
                    {
                      "type": {
                        "coding": [
                          {
                            "system": "https://spor.ema.europa.eu/v1/lists/100000073346",
                            "code": "200000002143",
                            "display": "Sachet"
                          }
                        ]
                      },
                      "quantity": 1,
                      "material": [
                        {
                          "coding": [
                            {
                              "system": "https://spor.ema.europa.eu/v1/lists/200000003199",
                              "code": "200000003208",
                              "display": "Plastic"
                            }
                          ]
                        }
                      ],
                      "containedItem": [
                        {
                          "item": {
                            "reference": {
                              "reference": "ManufacturedItemDefinition/Smofkabiven-Emulsion-SE-IS-ManufacturedItemDefinition"
                            }
                          },
                          "amount": {
                            "value": 281,
                            "unit": "milligram(s)",
                            "system": "http://spor.ema.europa.eu/v1/lists/200000000014",
                            "code": "100000110655"
                          }
                        }
                      ]
                    },
                    {
                      "type": {
                        "coding": [
                          {
                            "system": "https://spor.ema.europa.eu/v1/lists/100000073346",
                            "code": "200000002143",
                            "display": "Sachet"
                          }
                        ]
                      },
                      "quantity": 1,
                      "material": [
                        {
                          "coding": [
                            {
                              "system": "https://spor.ema.europa.eu/v1/lists/200000003199",
                              "code": "200000003208",
                              "display": "Plastic"
                            }
                          ]
                        }
                      ],
                      "containedItem": [
                        {
                          "item": {
                            "reference": {
                              "reference": "ManufacturedItemDefinition/Smofkabiven-Emulsion-SE-IS-ManufacturedItemDefinition"
                            }
                          },
                          "amount": {
                            "value": 446,
                            "unit": "milligram(s)",
                            "system": "http://spor.ema.europa.eu/v1/lists/200000000014",
                            "code": "100000110655"
                          }
                        }
                      ]
                    }
                  ]
                }
              ]
            }
          ]
        }
      },
      "request": {
        "method": "PUT",
        "url": "PackagedProductDefinition/Smofkabiven-Emulsion-SE-IS-PackagedProductDefinition02"
      },
      "fullUrl": "https://hl7-eu.github.io/unicom-ig/branches/mpd-r4b/PackagedProductDefinition/Smofkabiven-Emulsion-SE-IS-PackagedProductDefinition02"
    },
    {
      "resource": {
        "resourceType": "PackagedProductDefinition",
        "id": "Smofkabiven-Emulsion-SE-IS-PackagedProductDefinition03",
        "meta": {
          "versionId": "1",
          "lastUpdated": "2022-10-29T06:44:56.871+00:00"
        },
        "extension": [
          {
            "url": "http://ema.europa.eu/fhir/extension/containedItemQuantity",
            "valueQuantity": {
              "value": 3,
              "unit": "Sachet",
              "system": "http://spor.ema.europa.eu/v1/lists/200000000014",
              "code": "200000002143"
            }
          }
        ],
        "packageFor": [
          {
            "reference": "MedicinalProductDefinition/Smofkabiven-Emulsion-SE-IS-MedicinalProductDefinition"
          }
        ],
        "description": "Trekammarp\u00e5se, 4 x 1970 ml (Biofine)",
        "_description": {
          "extension": [
            {
              "url": "http://ema.europa.eu/fhir/extension/language",
              "valueCoding": {
                "system": "http://spor.ema.europa.eu/v1/lists/100000072057",
                "code": "100000072288",
                "display": "Swedish"
              }
            }
          ]
        },
        "marketingStatus": [
          {
            "country": {
              "coding": [
                {
                  "system": "http://spor.ema.europa.eu/v1/lists/100000000002",
                  "code": "100000000535",
                  "display": "Sweden"
                }
              ]
            },
            "status": {
              "coding": [
                {
                  "system": "http://spor.ema.europa.eu/v1/lists/100000072052",
                  "code": "100000072083",
                  "display": "Marketed"
                }
              ]
            }
          }
        ],
        "package": {
          "type": {
            "coding": [
              {
                "system": "https://spor.ema.europa.eu/v1/lists/100000073346",
                "code": "100000073498",
                "display": "Box"
              }
            ]
          },
          "quantity": 1,
          "material": [
            {
              "coding": [
                {
                  "system": "https://spor.ema.europa.eu/v1/lists/200000003199",
                  "code": "200000003529",
                  "display": "Cardboard"
                }
              ]
            }
          ],
          "shelfLifeStorage": [
            {
              "type": {
                "coding": [
                  {
                    "system": "https://spor.ema.europa.eu/v1/lists/100000073343",
                    "code": "100000073403",
                    "display": "Shelf life of the medicinal product as packaged for sale"
                  }
                ]
              },
              "periodDuration": {
                "value": 2,
                "unit": "years"
              },
              "specialPrecautionsForStorage": [
                {
                  "coding": [
                    {
                      "system": "https://spor.ema.europa.eu/v1/lists/100000073344",
                      "code": "100000073410",
                      "display": "Do not store above 25 \u00b0C"
                    }
                  ]
                },
                {
                  "coding": [
                    {
                      "system": "https://spor.ema.europa.eu/v1/lists/100000073344",
                      "code": "100000073421",
                      "display": "Store in the original package"
                    }
                  ]
                },
                {
                  "coding": [
                    {
                      "system": "https://spor.ema.europa.eu/v1/lists/100000073344",
                      "code": "100000073420",
                      "display": "Do not freeze"
                    }
                  ]
                }
              ]
            },
            {
              "type": {
                "coding": [
                  {
                    "system": "https://spor.ema.europa.eu/v1/lists/100000073343",
                    "code": "100000073405",
                    "display": "Shelf life after dilution or reconstitution according to directions"
                  }
                ]
              },
              "periodDuration": {
                "value": 24,
                "unit": "hours"
              },
              "specialPrecautionsForStorage": [
                {
                  "coding": [
                    {
                      "system": "https://spor.ema.europa.eu/v1/lists/100000073344",
                      "code": "100000073414",
                      "display": "Store in a refrigerator (2\u00b0C \u2013 8\u00b0C)"
                    }
                  ]
                }
              ]
            }
          ],
          "package": [
            {
              "type": {
                "coding": [
                  {
                    "system": "https://spor.ema.europa.eu/v1/lists/100000073346",
                    "code": "100000073540",
                    "display": "Pouch"
                  }
                ]
              },
              "quantity": 1,
              "material": [
                {
                  "coding": [
                    {
                      "system": "https://spor.ema.europa.eu/v1/lists/200000003199",
                      "code": "200000003208",
                      "display": "Plastic"
                    }
                  ]
                }
              ],
              "package": [
                {
                  "type": {
                    "coding": [
                      {
                        "system": "https://spor.ema.europa.eu/v1/lists/100000073346",
                        "code": "100000075664",
                        "display": "Administration system"
                      },
                      {
                        "system": "https://spor.ema.europa.eu/v1/lists/100000073346",
                        "code": "100000073493",
                        "display": "Bag"
                      }
                    ]
                  },
                  "quantity": 1,
                  "material": [
                    {
                      "coding": [
                        {
                          "system": "https://spor.ema.europa.eu/v1/lists/200000003199",
                          "code": "200000003208",
                          "display": "Plastic"
                        }
                      ]
                    }
                  ],
                  "package": [
                    {
                      "type": {
                        "coding": [
                          {
                            "system": "https://spor.ema.europa.eu/v1/lists/100000073346",
                            "code": "200000002143",
                            "display": "Sachet"
                          }
                        ]
                      },
                      "quantity": 1,
                      "material": [
                        {
                          "coding": [
                            {
                              "system": "https://spor.ema.europa.eu/v1/lists/200000003199",
                              "code": "200000003208",
                              "display": "Plastic"
                            }
                          ]
                        }
                      ],
                      "containedItem": [
                        {
                          "item": {
                            "reference": {
                              "reference": "ManufacturedItemDefinition/Smofkabiven-Emulsion-SE-IS-ManufacturedItemDefinition"
                            }
                          },
                          "amount": {
                            "value": 1000,
                            "unit": "milligram(s)",
                            "system": "http://spor.ema.europa.eu/v1/lists/200000000014",
                            "code": "100000110655"
                          }
                        }
                      ]
                    },
                    {
                      "type": {
                        "coding": [
                          {
                            "system": "https://spor.ema.europa.eu/v1/lists/100000073346",
                            "code": "200000002143",
                            "display": "Sachet"
                          }
                        ]
                      },
                      "quantity": 1,
                      "material": [
                        {
                          "coding": [
                            {
                              "system": "https://spor.ema.europa.eu/v1/lists/200000003199",
                              "code": "200000003208",
                              "display": "Plastic"
                            }
                          ]
                        }
                      ],
                      "containedItem": [
                        {
                          "item": {
                            "reference": {
                              "reference": "ManufacturedItemDefinition/Smofkabiven-Emulsion-SE-IS-ManufacturedItemDefinition"
                            }
                          },
                          "amount": {
                            "value": 375,
                            "unit": "milligram(s)",
                            "system": "http://spor.ema.europa.eu/v1/lists/200000000014",
                            "code": "100000110655"
                          }
                        }
                      ]
                    },
                    {
                      "type": {
                        "coding": [
                          {
                            "system": "https://spor.ema.europa.eu/v1/lists/100000073346",
                            "code": "200000002143",
                            "display": "Sachet"
                          }
                        ]
                      },
                      "quantity": 1,
                      "material": [
                        {
                          "coding": [
                            {
                              "system": "https://spor.ema.europa.eu/v1/lists/200000003199",
                              "code": "200000003208",
                              "display": "Plastic"
                            }
                          ]
                        }
                      ],
                      "containedItem": [
                        {
                          "item": {
                            "reference": {
                              "reference": "ManufacturedItemDefinition/Smofkabiven-Emulsion-SE-IS-ManufacturedItemDefinition"
                            }
                          },
                          "amount": {
                            "value": 744,
                            "unit": "milligram(s)",
                            "system": "http://spor.ema.europa.eu/v1/lists/200000000014",
                            "code": "100000110655"
                          }
                        }
                      ]
                    }
                  ]
                }
              ]
            }
          ]
        }
      },
      "request": {
        "method": "PUT",
        "url": "PackagedProductDefinition/Smofkabiven-Emulsion-SE-IS-PackagedProductDefinition03"
      },
      "fullUrl": "https://hl7-eu.github.io/unicom-ig/branches/mpd-r4b/PackagedProductDefinition/Smofkabiven-Emulsion-SE-IS-PackagedProductDefinition03"
    },
    {
      "resource": {
        "resourceType": "PackagedProductDefinition",
        "id": "Smofkabiven-Emulsion-SE-IS-PackagedProductDefinition04",
        "meta": {
          "versionId": "1",
          "lastUpdated": "2022-10-29T06:44:56.892+00:00"
        },
        "extension": [
          {
            "url": "http://ema.europa.eu/fhir/extension/containedItemQuantity",
            "valueQuantity": {
              "value": 3,
              "unit": "Sachet",
              "system": "http://spor.ema.europa.eu/v1/lists/200000000014",
              "code": "200000002143"
            }
          }
        ],
        "packageFor": [
          {
            "reference": "MedicinalProductDefinition/Smofkabiven-Emulsion-SE-IS-MedicinalProductDefinition"
          }
        ],
        "description": "Trekammarp\u00e5se, 4 x 986 ml (Biofine)",
        "_description": {
          "extension": [
            {
              "url": "http://ema.europa.eu/fhir/extension/language",
              "valueCoding": {
                "system": "http://spor.ema.europa.eu/v1/lists/100000072057",
                "code": "100000072288",
                "display": "Swedish"
              }
            }
          ]
        },
        "marketingStatus": [
          {
            "country": {
              "coding": [
                {
                  "system": "http://spor.ema.europa.eu/v1/lists/100000000002",
                  "code": "100000000535",
                  "display": "Sweden"
                }
              ]
            },
            "status": {
              "coding": [
                {
                  "system": "http://spor.ema.europa.eu/v1/lists/100000072052",
                  "code": "100000072083",
                  "display": "Marketed"
                }
              ]
            }
          }
        ],
        "package": {
          "type": {
            "coding": [
              {
                "system": "https://spor.ema.europa.eu/v1/lists/100000073346",
                "code": "100000073498",
                "display": "Box"
              }
            ]
          },
          "quantity": 1,
          "material": [
            {
              "coding": [
                {
                  "system": "https://spor.ema.europa.eu/v1/lists/200000003199",
                  "code": "200000003529",
                  "display": "Cardboard"
                }
              ]
            }
          ],
          "shelfLifeStorage": [
            {
              "type": {
                "coding": [
                  {
                    "system": "https://spor.ema.europa.eu/v1/lists/100000073343",
                    "code": "100000073403",
                    "display": "Shelf life of the medicinal product as packaged for sale"
                  }
                ]
              },
              "periodDuration": {
                "value": 2,
                "unit": "years"
              },
              "specialPrecautionsForStorage": [
                {
                  "coding": [
                    {
                      "system": "https://spor.ema.europa.eu/v1/lists/100000073344",
                      "code": "100000073410",
                      "display": "Do not store above 25 \u00b0C"
                    }
                  ]
                },
                {
                  "coding": [
                    {
                      "system": "https://spor.ema.europa.eu/v1/lists/100000073344",
                      "code": "100000073421",
                      "display": "Store in the original package"
                    }
                  ]
                },
                {
                  "coding": [
                    {
                      "system": "https://spor.ema.europa.eu/v1/lists/100000073344",
                      "code": "100000073420",
                      "display": "Do not freeze"
                    }
                  ]
                }
              ]
            },
            {
              "type": {
                "coding": [
                  {
                    "system": "https://spor.ema.europa.eu/v1/lists/100000073343",
                    "code": "100000073405",
                    "display": "Shelf life after dilution or reconstitution according to directions"
                  }
                ]
              },
              "periodDuration": {
                "value": 24,
                "unit": "hours"
              },
              "specialPrecautionsForStorage": [
                {
                  "coding": [
                    {
                      "system": "https://spor.ema.europa.eu/v1/lists/100000073344",
                      "code": "100000073414",
                      "display": "Store in a refrigerator (2\u00b0C \u2013 8\u00b0C)"
                    }
                  ]
                }
              ]
            }
          ],
          "package": [
            {
              "type": {
                "coding": [
                  {
                    "system": "https://spor.ema.europa.eu/v1/lists/100000073346",
                    "code": "100000073540",
                    "display": "Pouch"
                  }
                ]
              },
              "quantity": 1,
              "material": [
                {
                  "coding": [
                    {
                      "system": "https://spor.ema.europa.eu/v1/lists/200000003199",
                      "code": "200000003208",
                      "display": "Plastic"
                    }
                  ]
                }
              ],
              "package": [
                {
                  "type": {
                    "coding": [
                      {
                        "system": "https://spor.ema.europa.eu/v1/lists/100000073346",
                        "code": "100000075664",
                        "display": "Administration system"
                      },
                      {
                        "system": "https://spor.ema.europa.eu/v1/lists/100000073346",
                        "code": "100000073493",
                        "display": "Bag"
                      }
                    ]
                  },
                  "quantity": 1,
                  "material": [
                    {
                      "coding": [
                        {
                          "system": "https://spor.ema.europa.eu/v1/lists/200000003199",
                          "code": "200000003208",
                          "display": "Plastic"
                        }
                      ]
                    }
                  ],
                  "package": [
                    {
                      "type": {
                        "coding": [
                          {
                            "system": "https://spor.ema.europa.eu/v1/lists/100000073346",
                            "code": "200000002143",
                            "display": "Sachet"
                          }
                        ]
                      },
                      "quantity": 1,
                      "material": [
                        {
                          "coding": [
                            {
                              "system": "https://spor.ema.europa.eu/v1/lists/200000003199",
                              "code": "200000003208",
                              "display": "Plastic"
                            }
                          ]
                        }
                      ],
                      "containedItem": [
                        {
                          "item": {
                            "reference": {
                              "reference": "ManufacturedItemDefinition/Smofkabiven-Emulsion-SE-IS-ManufacturedItemDefinition"
                            }
                          },
                          "amount": {
                            "value": 500,
                            "unit": "milligram(s)",
                            "system": "http://spor.ema.europa.eu/v1/lists/200000000014",
                            "code": "100000110655"
                          }
                        }
                      ]
                    },
                    {
                      "type": {
                        "coding": [
                          {
                            "system": "https://spor.ema.europa.eu/v1/lists/100000073346",
                            "code": "200000002143",
                            "display": "Sachet"
                          }
                        ]
                      },
                      "quantity": 1,
                      "material": [
                        {
                          "coding": [
                            {
                              "system": "https://spor.ema.europa.eu/v1/lists/200000003199",
                              "code": "200000003208",
                              "display": "Plastic"
                            }
                          ]
                        }
                      ],
                      "containedItem": [
                        {
                          "item": {
                            "reference": {
                              "reference": "ManufacturedItemDefinition/Smofkabiven-Emulsion-SE-IS-ManufacturedItemDefinition"
                            }
                          },
                          "amount": {
                            "value": 188,
                            "unit": "milligram(s)",
                            "system": "http://spor.ema.europa.eu/v1/lists/200000000014",
                            "code": "100000110655"
                          }
                        }
                      ]
                    },
                    {
                      "type": {
                        "coding": [
                          {
                            "system": "https://spor.ema.europa.eu/v1/lists/100000073346",
                            "code": "200000002143",
                            "display": "Sachet"
                          }
                        ]
                      },
                      "quantity": 1,
                      "material": [
                        {
                          "coding": [
                            {
                              "system": "https://spor.ema.europa.eu/v1/lists/200000003199",
                              "code": "200000003208",
                              "display": "Plastic"
                            }
                          ]
                        }
                      ],
                      "containedItem": [
                        {
                          "item": {
                            "reference": {
                              "reference": "ManufacturedItemDefinition/Smofkabiven-Emulsion-SE-IS-ManufacturedItemDefinition"
                            }
                          },
                          "amount": {
                            "value": 298,
                            "unit": "milligram(s)",
                            "system": "http://spor.ema.europa.eu/v1/lists/200000000014",
                            "code": "100000110655"
                          }
                        }
                      ]
                    }
                  ]
                }
              ]
            }
          ]
        }
      },
      "request": {
        "method": "PUT",
        "url": "PackagedProductDefinition/Smofkabiven-Emulsion-SE-IS-PackagedProductDefinition04"
      },
      "fullUrl": "https://hl7-eu.github.io/unicom-ig/branches/mpd-r4b/PackagedProductDefinition/Smofkabiven-Emulsion-SE-IS-PackagedProductDefinition04"
    },
    {
      "resource": {
        "resourceType": "PackagedProductDefinition",
        "id": "Smofkabiven-Emulsion-SE-IS-PackagedProductDefinition05",
        "meta": {
          "versionId": "1",
          "lastUpdated": "2022-10-29T06:44:56.911+00:00"
        },
        "extension": [
          {
            "url": "http://ema.europa.eu/fhir/extension/containedItemQuantity",
            "valueQuantity": {
              "value": 3,
              "unit": "Sachet",
              "system": "http://spor.ema.europa.eu/v1/lists/200000000014",
              "code": "200000002143"
            }
          }
        ],
        "packageFor": [
          {
            "reference": "MedicinalProductDefinition/Smofkabiven-Emulsion-SE-IS-MedicinalProductDefinition"
          }
        ],
        "description": "Trekammarp\u00e5se, 6 x 493 ml (Biofine)",
        "_description": {
          "extension": [
            {
              "url": "http://ema.europa.eu/fhir/extension/language",
              "valueCoding": {
                "system": "http://spor.ema.europa.eu/v1/lists/100000072057",
                "code": "100000072288",
                "display": "Swedish"
              }
            }
          ]
        },
        "marketingStatus": [
          {
            "country": {
              "coding": [
                {
                  "system": "http://spor.ema.europa.eu/v1/lists/100000000002",
                  "code": "100000000535",
                  "display": "Sweden"
                }
              ]
            },
            "status": {
              "coding": [
                {
                  "system": "http://spor.ema.europa.eu/v1/lists/100000072052",
                  "code": "100000072083",
                  "display": "Marketed"
                }
              ]
            }
          }
        ],
        "package": {
          "type": {
            "coding": [
              {
                "system": "https://spor.ema.europa.eu/v1/lists/100000073346",
                "code": "100000073498",
                "display": "Box"
              }
            ]
          },
          "quantity": 1,
          "material": [
            {
              "coding": [
                {
                  "system": "https://spor.ema.europa.eu/v1/lists/200000003199",
                  "code": "200000003529",
                  "display": "Cardboard"
                }
              ]
            }
          ],
          "shelfLifeStorage": [
            {
              "type": {
                "coding": [
                  {
                    "system": "https://spor.ema.europa.eu/v1/lists/100000073343",
                    "code": "100000073403",
                    "display": "Shelf life of the medicinal product as packaged for sale"
                  }
                ]
              },
              "periodDuration": {
                "value": 2,
                "unit": "years"
              },
              "specialPrecautionsForStorage": [
                {
                  "coding": [
                    {
                      "system": "https://spor.ema.europa.eu/v1/lists/100000073344",
                      "code": "100000073410",
                      "display": "Do not store above 25 \u00b0C"
                    }
                  ]
                },
                {
                  "coding": [
                    {
                      "system": "https://spor.ema.europa.eu/v1/lists/100000073344",
                      "code": "100000073421",
                      "display": "Store in the original package"
                    }
                  ]
                },
                {
                  "coding": [
                    {
                      "system": "https://spor.ema.europa.eu/v1/lists/100000073344",
                      "code": "100000073420",
                      "display": "Do not freeze"
                    }
                  ]
                }
              ]
            },
            {
              "type": {
                "coding": [
                  {
                    "system": "https://spor.ema.europa.eu/v1/lists/100000073343",
                    "code": "100000073405",
                    "display": "Shelf life after dilution or reconstitution according to directions"
                  }
                ]
              },
              "periodDuration": {
                "value": 24,
                "unit": "hours"
              },
              "specialPrecautionsForStorage": [
                {
                  "coding": [
                    {
                      "system": "https://spor.ema.europa.eu/v1/lists/100000073344",
                      "code": "100000073414",
                      "display": "Store in a refrigerator (2\u00b0C \u2013 8\u00b0C)"
                    }
                  ]
                }
              ]
            }
          ],
          "package": [
            {
              "type": {
                "coding": [
                  {
                    "system": "https://spor.ema.europa.eu/v1/lists/100000073346",
                    "code": "100000073540",
                    "display": "Pouch"
                  }
                ]
              },
              "quantity": 1,
              "material": [
                {
                  "coding": [
                    {
                      "system": "https://spor.ema.europa.eu/v1/lists/200000003199",
                      "code": "200000003208",
                      "display": "Plastic"
                    }
                  ]
                }
              ],
              "package": [
                {
                  "type": {
                    "coding": [
                      {
                        "system": "https://spor.ema.europa.eu/v1/lists/100000073346",
                        "code": "100000075664",
                        "display": "Administration system"
                      },
                      {
                        "system": "https://spor.ema.europa.eu/v1/lists/100000073346",
                        "code": "100000073493",
                        "display": "Bag"
                      }
                    ]
                  },
                  "quantity": 1,
                  "material": [
                    {
                      "coding": [
                        {
                          "system": "https://spor.ema.europa.eu/v1/lists/200000003199",
                          "code": "200000003208",
                          "display": "Plastic"
                        }
                      ]
                    }
                  ],
                  "package": [
                    {
                      "type": {
                        "coding": [
                          {
                            "system": "https://spor.ema.europa.eu/v1/lists/100000073346",
                            "code": "200000002143",
                            "display": "Sachet"
                          }
                        ]
                      },
                      "quantity": 1,
                      "material": [
                        {
                          "coding": [
                            {
                              "system": "https://spor.ema.europa.eu/v1/lists/200000003199",
                              "code": "200000003208",
                              "display": "Plastic"
                            }
                          ]
                        }
                      ],
                      "containedItem": [
                        {
                          "item": {
                            "reference": {
                              "reference": "ManufacturedItemDefinition/Smofkabiven-Emulsion-SE-IS-ManufacturedItemDefinition"
                            }
                          },
                          "amount": {
                            "value": 250,
                            "unit": "milligram(s)",
                            "system": "http://spor.ema.europa.eu/v1/lists/200000000014",
                            "code": "100000110655"
                          }
                        }
                      ]
                    },
                    {
                      "type": {
                        "coding": [
                          {
                            "system": "https://spor.ema.europa.eu/v1/lists/100000073346",
                            "code": "200000002143",
                            "display": "Sachet"
                          }
                        ]
                      },
                      "quantity": 1,
                      "material": [
                        {
                          "coding": [
                            {
                              "system": "https://spor.ema.europa.eu/v1/lists/200000003199",
                              "code": "200000003208",
                              "display": "Plastic"
                            }
                          ]
                        }
                      ],
                      "containedItem": [
                        {
                          "item": {
                            "reference": {
                              "reference": "ManufacturedItemDefinition/Smofkabiven-Emulsion-SE-IS-ManufacturedItemDefinition"
                            }
                          },
                          "amount": {
                            "value": 94,
                            "unit": "milligram(s)",
                            "system": "http://spor.ema.europa.eu/v1/lists/200000000014",
                            "code": "100000110655"
                          }
                        }
                      ]
                    },
                    {
                      "type": {
                        "coding": [
                          {
                            "system": "https://spor.ema.europa.eu/v1/lists/100000073346",
                            "code": "200000002143",
                            "display": "Sachet"
                          }
                        ]
                      },
                      "quantity": 1,
                      "material": [
                        {
                          "coding": [
                            {
                              "system": "https://spor.ema.europa.eu/v1/lists/200000003199",
                              "code": "200000003208",
                              "display": "Plastic"
                            }
                          ]
                        }
                      ],
                      "containedItem": [
                        {
                          "item": {
                            "reference": {
                              "reference": "ManufacturedItemDefinition/Smofkabiven-Emulsion-SE-IS-ManufacturedItemDefinition"
                            }
                          },
                          "amount": {
                            "value": 149,
                            "unit": "milligram(s)",
                            "system": "http://spor.ema.europa.eu/v1/lists/200000000014",
                            "code": "100000110655"
                          }
                        }
                      ]
                    }
                  ]
                }
              ]
            }
          ]
        }
      },
      "request": {
        "method": "PUT",
        "url": "PackagedProductDefinition/Smofkabiven-Emulsion-SE-IS-PackagedProductDefinition05"
      },
      "fullUrl": "https://hl7-eu.github.io/unicom-ig/branches/mpd-r4b/PackagedProductDefinition/Smofkabiven-Emulsion-SE-IS-PackagedProductDefinition05"
    },
    {
      "resource": {
        "resourceType": "ManufacturedItemDefinition",
        "id": "Smofkabiven-Emulsion-SE-IS-ManufacturedItemDefinition",
        "meta": {
          "versionId": "1",
          "lastUpdated": "2022-10-29T06:44:56.922+00:00"
        },
        "status": "active",
        "manufacturedDoseForm": {
          "coding": [
            {
              "system": "http://spor.ema.europa.eu/v1/lists/200000000006",
              "code": "100000075575",
              "display": "Solution for infusion in administration system"
            },
            {
              "system": "http://spor.ema.europa.eu/v1/lists/200000000006",
              "code": "100000172025",
              "display": "Emulsion for infusion in administration system"
            }
          ]
        },
        "unitOfPresentation": {
          "coding": [
            {
              "system": "http://spor.ema.europa.eu/v1/lists/200000000014",
              "code": "Sachet",
              "display": "200000002143"
            }
          ]
        }
      },
      "request": {
        "method": "PUT",
        "url": "ManufacturedItemDefinition/Smofkabiven-Emulsion-SE-IS-ManufacturedItemDefinition"
      },
      "fullUrl": "https://hl7-eu.github.io/unicom-ig/branches/mpd-r4b/ManufacturedItemDefinition/Smofkabiven-Emulsion-SE-IS-ManufacturedItemDefinition"
    },
    {
      "resource": {
        "resourceType": "Ingredient",
        "id": "Smofkabiven-Emulsion-SE-IS-Ingredient01",
        "meta": {
          "versionId": "1",
          "lastUpdated": "2022-10-29T06:44:56.934+00:00"
        },
        "status": "active",
        "for": [
          {
            "reference": "MedicinalProductDefinition/Smofkabiven-Emulsion-SE-IS-MedicinalProductDefinition"
          },
          {
            "reference": "ManufacturedItemDefinition/Smofkabiven-Emulsion-SE-IS-ManufacturedItemDefinition"
          },
          {
            "reference": "AdministrableProductDefinition/Smofkabiven-Emulsion-SE-IS-AdministrableProductDefinition"
          }
        ],
        "role": {
          "coding": [
            {
              "system": "http://spor.ema.europa.eu/v1/lists/100000072050",
              "code": "100000072072",
              "display": "Active"
            }
          ]
        },
        "function": [
          {
            "coding": [
              {
                "system": "http://spor.ema.europa.eu/v1/lists/200000004946",
                "code": "200000004948",
                "display": "Specified Substance Group 1 to Parent"
              }
            ]
          }
        ],
        "substance": {
          "code": {
            "concept": {
              "coding": [
                {
                  "system": "http://spor.azure-api.net/sms/api/v2/SubstanceDefinition",
                  "code": "100000092328",
                  "display": "Alanine"
                }
              ]
            }
          },
          "strength": [
            {
              "concentrationRatio": {
                "numerator": {
                  "value": 14,
                  "_comparator": {
                    "extension": [
                      {
                        "url": "http://ema.europa.eu/fhir/extension/comparator",
                        "valueCoding": {
                          "system": "https://spor.ema.europa.eu/v1/lists/100000000008",
                          "code": "100000000049",
                          "display": "equal to"
                        }
                      }
                    ]
                  },
                  "unit": "milligram(s)",
                  "system": "http://spor.ema.europa.eu/v1/lists/100000110633",
                  "code": "100000110655"
                },
                "denominator": {
                  "value": 1,
                  "unit": "millilitre(s)",
                  "system": "http://spor.ema.europa.eu/v1/lists/100000110633",
                  "code": "100000110662"
                }
              },
              "referenceStrength": [
                {
                  "substance": {
                    "concept": {
                      "coding": [
                        {
                          "system": "https://spor.ema.europa.eu/v2/SubstanceDefinition",
                          "code": "100000092328",
                          "display": "Alanine"
                        }
                      ]
                    }
                  },
                  "strengthRatio": {
                    "numerator": {
                      "value": 14,
                      "_comparator": {
                        "extension": [
                          {
                            "url": "http://ema.europa.eu/fhir/extension/comparator",
                            "valueCoding": {
                              "system": "https://spor.ema.europa.eu/v1/lists/100000000008",
                              "code": "100000000049",
                              "display": "equal to"
                            }
                          }
                        ]
                      },
                      "unit": "milligram(s)",
                      "system": "http://spor.ema.europa.eu/v1/lists/100000110633",
                      "code": "100000110655"
                    },
                    "denominator": {
                      "value": 1,
                      "unit": "millilitre(s)",
                      "system": "http://spor.ema.europa.eu/v1/lists/100000110633",
                      "code": "100000110662"
                    }
                  }
                }
              ]
            }
          ]
        }
      },
      "request": {
        "method": "PUT",
        "url": "Ingredient/Smofkabiven-Emulsion-SE-IS-Ingredient01"
      },
      "fullUrl": "https://hl7-eu.github.io/unicom-ig/branches/mpd-r4b/Ingredient/Smofkabiven-Emulsion-SE-IS-Ingredient01"
    },
    {
      "resource": {
        "resourceType": "Ingredient",
        "id": "Smofkabiven-Emulsion-SE-IS-Ingredient02",
        "meta": {
          "versionId": "1",
          "lastUpdated": "2022-10-29T06:44:56.948+00:00"
        },
        "status": "active",
        "for": [
          {
            "reference": "MedicinalProductDefinition/Smofkabiven-Emulsion-SE-IS-MedicinalProductDefinition"
          },
          {
            "reference": "ManufacturedItemDefinition/Smofkabiven-Emulsion-SE-IS-ManufacturedItemDefinition"
          },
          {
            "reference": "AdministrableProductDefinition/Smofkabiven-Emulsion-SE-IS-AdministrableProductDefinition"
          }
        ],
        "role": {
          "coding": [
            {
              "system": "http://spor.ema.europa.eu/v1/lists/100000072050",
              "code": "100000072072",
              "display": "Active"
            }
          ]
        },
        "function": [
          {
            "coding": [
              {
                "system": "http://spor.ema.europa.eu/v1/lists/200000004946",
                "code": "200000004948",
                "display": "Specified Substance Group 1 to Parent"
              }
            ]
          }
        ],
        "substance": {
          "code": {
            "concept": {
              "coding": [
                {
                  "system": "http://spor.azure-api.net/sms/api/v2/SubstanceDefinition",
                  "code": "100000086598",
                  "display": "Arginine"
                }
              ]
            }
          },
          "strength": [
            {
              "concentrationRatio": {
                "numerator": {
                  "value": 12,
                  "_comparator": {
                    "extension": [
                      {
                        "url": "http://ema.europa.eu/fhir/extension/comparator",
                        "valueCoding": {
                          "system": "https://spor.ema.europa.eu/v1/lists/100000000008",
                          "code": "100000000049",
                          "display": "equal to"
                        }
                      }
                    ]
                  },
                  "unit": "milligram(s)",
                  "system": "http://spor.ema.europa.eu/v1/lists/100000110633",
                  "code": "100000110655"
                },
                "denominator": {
                  "value": 1,
                  "unit": "millilitre(s)",
                  "system": "http://spor.ema.europa.eu/v1/lists/100000110633",
                  "code": "100000110662"
                }
              },
              "referenceStrength": [
                {
                  "substance": {
                    "concept": {
                      "coding": [
                        {
                          "system": "https://spor.ema.europa.eu/v2/SubstanceDefinition",
                          "code": "100000086598",
                          "display": "Arginine"
                        }
                      ]
                    }
                  },
                  "strengthRatio": {
                    "numerator": {
                      "value": 12,
                      "_comparator": {
                        "extension": [
                          {
                            "url": "http://ema.europa.eu/fhir/extension/comparator",
                            "valueCoding": {
                              "system": "https://spor.ema.europa.eu/v1/lists/100000000008",
                              "code": "100000000049",
                              "display": "equal to"
                            }
                          }
                        ]
                      },
                      "unit": "milligram(s)",
                      "system": "http://spor.ema.europa.eu/v1/lists/100000110633",
                      "code": "100000110655"
                    },
                    "denominator": {
                      "value": 1,
                      "unit": "millilitre(s)",
                      "system": "http://spor.ema.europa.eu/v1/lists/100000110633",
                      "code": "100000110662"
                    }
                  }
                }
              ]
            }
          ]
        }
      },
      "request": {
        "method": "PUT",
        "url": "Ingredient/Smofkabiven-Emulsion-SE-IS-Ingredient02"
      },
      "fullUrl": "https://hl7-eu.github.io/unicom-ig/branches/mpd-r4b/Ingredient/Smofkabiven-Emulsion-SE-IS-Ingredient02"
    },
    {
      "resource": {
        "resourceType": "Ingredient",
        "id": "Smofkabiven-Emulsion-SE-IS-Ingredient03",
        "meta": {
          "versionId": "1",
          "lastUpdated": "2022-10-29T06:44:56.982+00:00"
        },
        "status": "active",
        "for": [
          {
            "reference": "MedicinalProductDefinition/Smofkabiven-Emulsion-SE-IS-MedicinalProductDefinition"
          },
          {
            "reference": "ManufacturedItemDefinition/Smofkabiven-Emulsion-SE-IS-ManufacturedItemDefinition"
          },
          {
            "reference": "AdministrableProductDefinition/Smofkabiven-Emulsion-SE-IS-AdministrableProductDefinition"
          }
        ],
        "role": {
          "coding": [
            {
              "system": "http://spor.ema.europa.eu/v1/lists/100000072050",
              "code": "100000072072",
              "display": "Active"
            }
          ]
        },
        "function": [
          {
            "coding": [
              {
                "system": "http://spor.ema.europa.eu/v1/lists/200000004946",
                "code": "200000004948",
                "display": "Specified Substance Group 1 to Parent"
              }
            ]
          }
        ],
        "substance": {
          "code": {
            "concept": {
              "coding": [
                {
                  "system": "http://spor.azure-api.net/sms/api/v2/SubstanceDefinition",
                  "code": "100000090106",
                  "display": "Calcium chloride dihydrate"
                }
              ]
            }
          },
          "strength": [
            {
              "concentrationRatio": {
                "numerator": {
                  "value": 0.74,
                  "_comparator": {
                    "extension": [
                      {
                        "url": "http://ema.europa.eu/fhir/extension/comparator",
                        "valueCoding": {
                          "system": "https://spor.ema.europa.eu/v1/lists/100000000008",
                          "code": "100000000049",
                          "display": "equal to"
                        }
                      }
                    ]
                  },
                  "unit": "milligram(s)",
                  "system": "http://spor.ema.europa.eu/v1/lists/100000110633",
                  "code": "100000110655"
                },
                "denominator": {
                  "value": 1,
                  "unit": "millilitre(s)",
                  "system": "http://spor.ema.europa.eu/v1/lists/100000110633",
                  "code": "100000110662"
                }
              },
              "referenceStrength": [
                {
                  "substance": {
                    "concept": {
                      "coding": [
                        {
                          "system": "https://spor.ema.europa.eu/v2/SubstanceDefinition",
                          "code": "100000076563",
                          "display": "Calcium chloride anhydrous"
                        }
                      ]
                    }
                  },
                  "strengthRatio": {
                    "numerator": {
                      "value": 0.56,
                      "_comparator": {
                        "extension": [
                          {
                            "url": "http://ema.europa.eu/fhir/extension/comparator",
                            "valueCoding": {
                              "system": "https://spor.ema.europa.eu/v1/lists/100000000008",
                              "code": "100000000049",
                              "display": "equal to"
                            }
                          }
                        ]
                      },
                      "unit": "milligram(s)",
                      "system": "http://spor.ema.europa.eu/v1/lists/100000110633",
                      "code": "100000110655"
                    },
                    "denominator": {
                      "value": 1,
                      "unit": "millilitre(s)",
                      "system": "http://spor.ema.europa.eu/v1/lists/100000110633",
                      "code": "100000110662"
                    }
                  }
                }
              ]
            }
          ]
        }
      },
      "request": {
        "method": "PUT",
        "url": "Ingredient/Smofkabiven-Emulsion-SE-IS-Ingredient03"
      },
      "fullUrl": "https://hl7-eu.github.io/unicom-ig/branches/mpd-r4b/Ingredient/Smofkabiven-Emulsion-SE-IS-Ingredient03"
    },
    {
      "resource": {
        "resourceType": "Ingredient",
        "id": "Smofkabiven-Emulsion-SE-IS-Ingredient04",
        "meta": {
          "versionId": "1",
          "lastUpdated": "2022-10-29T06:44:56.995+00:00"
        },
        "status": "active",
        "for": [
          {
            "reference": "MedicinalProductDefinition/Smofkabiven-Emulsion-SE-IS-MedicinalProductDefinition"
          },
          {
            "reference": "ManufacturedItemDefinition/Smofkabiven-Emulsion-SE-IS-ManufacturedItemDefinition"
          },
          {
            "reference": "AdministrableProductDefinition/Smofkabiven-Emulsion-SE-IS-AdministrableProductDefinition"
          }
        ],
        "role": {
          "coding": [
            {
              "system": "http://spor.ema.europa.eu/v1/lists/100000072050",
              "code": "100000072072",
              "display": "Active"
            }
          ]
        },
        "function": [
          {
            "coding": [
              {
                "system": "http://spor.ema.europa.eu/v1/lists/200000004946",
                "code": "200000004948",
                "display": "Specified Substance Group 1 to Parent"
              }
            ]
          }
        ],
        "substance": {
          "code": {
            "concept": {
              "coding": [
                {
                  "system": "http://spor.azure-api.net/sms/api/v2/SubstanceDefinition",
                  "code": "100000091968",
                  "display": "Glycine"
                }
              ]
            }
          },
          "strength": [
            {
              "concentrationRatio": {
                "numerator": {
                  "value": 11,
                  "_comparator": {
                    "extension": [
                      {
                        "url": "http://ema.europa.eu/fhir/extension/comparator",
                        "valueCoding": {
                          "system": "https://spor.ema.europa.eu/v1/lists/100000000008",
                          "code": "100000000049",
                          "display": "equal to"
                        }
                      }
                    ]
                  },
                  "unit": "milligram(s)",
                  "system": "http://spor.ema.europa.eu/v1/lists/100000110633",
                  "code": "100000110655"
                },
                "denominator": {
                  "value": 1,
                  "unit": "millilitre(s)",
                  "system": "http://spor.ema.europa.eu/v1/lists/100000110633",
                  "code": "100000110662"
                }
              },
              "referenceStrength": [
                {
                  "substance": {
                    "concept": {
                      "coding": [
                        {
                          "code": "100000091968",
                          "display": "Glycine"
                        }
                      ]
                    }
                  },
                  "strengthRatio": {
                    "numerator": {
                      "value": 11,
                      "_comparator": {
                        "extension": [
                          {
                            "url": "http://ema.europa.eu/fhir/extension/comparator",
                            "valueCoding": {
                              "system": "https://spor.ema.europa.eu/v1/lists/100000000008",
                              "code": "100000000049",
                              "display": "equal to"
                            }
                          }
                        ]
                      },
                      "unit": "milligram(s)",
                      "system": "http://spor.ema.europa.eu/v1/lists/100000110633",
                      "code": "100000110655"
                    },
                    "denominator": {
                      "value": 1,
                      "unit": "millilitre(s)",
                      "system": "http://spor.ema.europa.eu/v1/lists/100000110633",
                      "code": "100000110662"
                    }
                  }
                }
              ]
            }
          ]
        }
      },
      "request": {
        "method": "PUT",
        "url": "Ingredient/Smofkabiven-Emulsion-SE-IS-Ingredient04"
      },
      "fullUrl": "https://hl7-eu.github.io/unicom-ig/branches/mpd-r4b/Ingredient/Smofkabiven-Emulsion-SE-IS-Ingredient04"
    },
    {
      "resource": {
        "resourceType": "Ingredient",
        "id": "Smofkabiven-Emulsion-SE-IS-Ingredient05",
        "meta": {
          "versionId": "1",
          "lastUpdated": "2022-10-29T06:44:57.01+00:00"
        },
        "status": "active",
        "for": [
          {
            "reference": "MedicinalProductDefinition/Smofkabiven-Emulsion-SE-IS-MedicinalProductDefinition"
          },
          {
            "reference": "ManufacturedItemDefinition/Smofkabiven-Emulsion-SE-IS-ManufacturedItemDefinition"
          },
          {
            "reference": "AdministrableProductDefinition/Smofkabiven-Emulsion-SE-IS-AdministrableProductDefinition"
          }
        ],
        "role": {
          "coding": [
            {
              "system": "http://spor.ema.europa.eu/v1/lists/100000072050",
              "code": "100000072072",
              "display": "Active"
            }
          ]
        },
        "function": [
          {
            "coding": [
              {
                "system": "http://spor.ema.europa.eu/v1/lists/200000004946",
                "code": "200000004948",
                "display": "Specified Substance Group 1 to Parent"
              }
            ]
          }
        ],
        "substance": {
          "code": {
            "concept": {
              "coding": [
                {
                  "system": "http://spor.azure-api.net/sms/api/v2/SubstanceDefinition",
                  "code": "100000092646",
                  "display": "Histidine"
                }
              ]
            }
          },
          "strength": [
            {
              "concentrationRatio": {
                "numerator": {
                  "value": 3,
                  "_comparator": {
                    "extension": [
                      {
                        "url": "http://ema.europa.eu/fhir/extension/comparator",
                        "valueCoding": {
                          "system": "https://spor.ema.europa.eu/v1/lists/100000000008",
                          "code": "100000000049",
                          "display": "equal to"
                        }
                      }
                    ]
                  },
                  "unit": "milligram(s)",
                  "system": "http://spor.ema.europa.eu/v1/lists/100000110633",
                  "code": "100000110655"
                },
                "denominator": {
                  "value": 1,
                  "unit": "millilitre(s)",
                  "system": "http://spor.ema.europa.eu/v1/lists/100000110633",
                  "code": "100000110662"
                }
              },
              "referenceStrength": [
                {
                  "substance": {
                    "concept": {
                      "coding": [
                        {
                          "system": "https://spor.ema.europa.eu/v2/SubstanceDefinition",
                          "code": "100000092646",
                          "display": "Histidine"
                        }
                      ]
                    }
                  },
                  "strengthRatio": {
                    "numerator": {
                      "value": 3,
                      "_comparator": {
                        "extension": [
                          {
                            "url": "http://ema.europa.eu/fhir/extension/comparator",
                            "valueCoding": {
                              "system": "https://spor.ema.europa.eu/v1/lists/100000000008",
                              "code": "100000000049",
                              "display": "equal to"
                            }
                          }
                        ]
                      },
                      "unit": "milligram(s)",
                      "system": "http://spor.ema.europa.eu/v1/lists/100000110633",
                      "code": "100000110655"
                    },
                    "denominator": {
                      "value": 1,
                      "unit": "millilitre(s)",
                      "system": "http://spor.ema.europa.eu/v1/lists/100000110633",
                      "code": "100000110662"
                    }
                  }
                }
              ]
            }
          ]
        }
      },
      "request": {
        "method": "PUT",
        "url": "Ingredient/Smofkabiven-Emulsion-SE-IS-Ingredient05"
      },
      "fullUrl": "https://hl7-eu.github.io/unicom-ig/branches/mpd-r4b/Ingredient/Smofkabiven-Emulsion-SE-IS-Ingredient05"
    },
    {
      "resource": {
        "resourceType": "Ingredient",
        "id": "Smofkabiven-Emulsion-SE-IS-Ingredient06",
        "meta": {
          "versionId": "1",
          "lastUpdated": "2022-10-29T06:44:57.025+00:00"
        },
        "status": "active",
        "for": [
          {
            "reference": "MedicinalProductDefinition/Smofkabiven-Emulsion-SE-IS-MedicinalProductDefinition"
          },
          {
            "reference": "ManufacturedItemDefinition/Smofkabiven-Emulsion-SE-IS-ManufacturedItemDefinition"
          },
          {
            "reference": "AdministrableProductDefinition/Smofkabiven-Emulsion-SE-IS-AdministrableProductDefinition"
          }
        ],
        "role": {
          "coding": [
            {
              "system": "http://spor.ema.europa.eu/v1/lists/100000072050",
              "code": "100000072072",
              "display": "Active"
            }
          ]
        },
        "function": [
          {
            "coding": [
              {
                "system": "http://spor.ema.europa.eu/v1/lists/200000004946",
                "code": "200000004948",
                "display": "Specified Substance Group 1 to Parent"
              }
            ]
          }
        ],
        "substance": {
          "code": {
            "concept": {
              "coding": [
                {
                  "system": "http://spor.azure-api.net/sms/api/v2/SubstanceDefinition",
                  "code": "100000091969",
                  "display": "Isoleucine"
                }
              ]
            }
          },
          "strength": [
            {
              "concentrationRatio": {
                "numerator": {
                  "value": 5,
                  "_comparator": {
                    "extension": [
                      {
                        "url": "http://ema.europa.eu/fhir/extension/comparator",
                        "valueCoding": {
                          "system": "https://spor.ema.europa.eu/v1/lists/100000000008",
                          "code": "100000000049",
                          "display": "equal to"
                        }
                      }
                    ]
                  },
                  "unit": "milligram(s)",
                  "system": "http://spor.ema.europa.eu/v1/lists/100000110633",
                  "code": "100000110655"
                },
                "denominator": {
                  "value": 1,
                  "unit": "millilitre(s)",
                  "system": "http://spor.ema.europa.eu/v1/lists/100000110633",
                  "code": "100000110662"
                }
              },
              "referenceStrength": [
                {
                  "substance": {
                    "concept": {
                      "coding": [
                        {
                          "system": "https://spor.ema.europa.eu/v2/SubstanceDefinition",
                          "code": "100000091969",
                          "display": "Isoleucine"
                        }
                      ]
                    }
                  },
                  "strengthRatio": {
                    "numerator": {
                      "value": 5,
                      "_comparator": {
                        "extension": [
                          {
                            "url": "http://ema.europa.eu/fhir/extension/comparator",
                            "valueCoding": {
                              "system": "https://spor.ema.europa.eu/v1/lists/100000000008",
                              "code": "100000000049",
                              "display": "equal to"
                            }
                          }
                        ]
                      },
                      "unit": "milligram(s)",
                      "system": "http://spor.ema.europa.eu/v1/lists/100000110633",
                      "code": "100000110655"
                    },
                    "denominator": {
                      "value": 1,
                      "unit": "millilitre(s)",
                      "system": "http://spor.ema.europa.eu/v1/lists/100000110633",
                      "code": "100000110662"
                    }
                  }
                }
              ]
            }
          ]
        }
      },
      "request": {
        "method": "PUT",
        "url": "Ingredient/Smofkabiven-Emulsion-SE-IS-Ingredient06"
      },
      "fullUrl": "https://hl7-eu.github.io/unicom-ig/branches/mpd-r4b/Ingredient/Smofkabiven-Emulsion-SE-IS-Ingredient06"
    },
    {
      "resource": {
        "resourceType": "Ingredient",
        "id": "Smofkabiven-Emulsion-SE-IS-Ingredient07",
        "meta": {
          "versionId": "1",
          "lastUpdated": "2022-10-29T06:44:57.045+00:00"
        },
        "status": "active",
        "for": [
          {
            "reference": "MedicinalProductDefinition/Smofkabiven-Emulsion-SE-IS-MedicinalProductDefinition"
          },
          {
            "reference": "ManufacturedItemDefinition/Smofkabiven-Emulsion-SE-IS-ManufacturedItemDefinition"
          },
          {
            "reference": "AdministrableProductDefinition/Smofkabiven-Emulsion-SE-IS-AdministrableProductDefinition"
          }
        ],
        "role": {
          "coding": [
            {
              "system": "http://spor.ema.europa.eu/v1/lists/100000072050",
              "code": "100000072072",
              "display": "Active"
            }
          ]
        },
        "function": [
          {
            "coding": [
              {
                "system": "http://spor.ema.europa.eu/v1/lists/200000004946",
                "code": "200000004948",
                "display": "Specified Substance Group 1 to Parent"
              }
            ]
          }
        ],
        "substance": {
          "code": {
            "concept": {
              "coding": [
                {
                  "system": "http://spor.azure-api.net/sms/api/v2/SubstanceDefinition",
                  "code": "100000092265",
                  "display": "Leucine"
                }
              ]
            }
          },
          "strength": [
            {
              "concentrationRatio": {
                "numerator": {
                  "value": 7.4,
                  "_comparator": {
                    "extension": [
                      {
                        "url": "http://ema.europa.eu/fhir/extension/comparator",
                        "valueCoding": {
                          "system": "https://spor.ema.europa.eu/v1/lists/100000000008",
                          "code": "100000000049",
                          "display": "equal to"
                        }
                      }
                    ]
                  },
                  "unit": "milligram(s)",
                  "system": "http://spor.ema.europa.eu/v1/lists/100000110633",
                  "code": "100000110655"
                },
                "denominator": {
                  "value": 1,
                  "unit": "millilitre(s)",
                  "system": "http://spor.ema.europa.eu/v1/lists/100000110633",
                  "code": "100000110662"
                }
              },
              "referenceStrength": [
                {
                  "substance": {
                    "concept": {
                      "coding": [
                        {
                          "system": "https://spor.ema.europa.eu/v2/SubstanceDefinition",
                          "code": "100000092265",
                          "display": "Leucine"
                        }
                      ]
                    }
                  },
                  "strengthRatio": {
                    "numerator": {
                      "value": 7.4,
                      "_comparator": {
                        "extension": [
                          {
                            "url": "http://ema.europa.eu/fhir/extension/comparator",
                            "valueCoding": {
                              "system": "https://spor.ema.europa.eu/v1/lists/100000000008",
                              "code": "100000000049",
                              "display": "equal to"
                            }
                          }
                        ]
                      },
                      "unit": "milligram(s)",
                      "system": "http://spor.ema.europa.eu/v1/lists/100000110633",
                      "code": "100000110655"
                    },
                    "denominator": {
                      "value": 1,
                      "unit": "millilitre(s)",
                      "system": "http://spor.ema.europa.eu/v1/lists/100000110633",
                      "code": "100000110662"
                    }
                  }
                }
              ]
            }
          ]
        }
      },
      "request": {
        "method": "PUT",
        "url": "Ingredient/Smofkabiven-Emulsion-SE-IS-Ingredient07"
      },
      "fullUrl": "https://hl7-eu.github.io/unicom-ig/branches/mpd-r4b/Ingredient/Smofkabiven-Emulsion-SE-IS-Ingredient07"
    },
    {
      "resource": {
        "resourceType": "Ingredient",
        "id": "Smofkabiven-Emulsion-SE-IS-Ingredient08",
        "meta": {
          "versionId": "1",
          "lastUpdated": "2022-10-29T06:44:57.059+00:00"
        },
        "status": "active",
        "for": [
          {
            "reference": "MedicinalProductDefinition/Smofkabiven-Emulsion-SE-IS-MedicinalProductDefinition"
          },
          {
            "reference": "ManufacturedItemDefinition/Smofkabiven-Emulsion-SE-IS-ManufacturedItemDefinition"
          },
          {
            "reference": "AdministrableProductDefinition/Smofkabiven-Emulsion-SE-IS-AdministrableProductDefinition"
          }
        ],
        "role": {
          "coding": [
            {
              "system": "http://spor.ema.europa.eu/v1/lists/100000072050",
              "code": "100000072072",
              "display": "Active"
            }
          ]
        },
        "function": [
          {
            "coding": [
              {
                "system": "http://spor.ema.europa.eu/v1/lists/200000004946",
                "code": "200000004948",
                "display": "Specified Substance Group 1 to Parent"
              }
            ]
          }
        ],
        "substance": {
          "code": {
            "concept": {
              "coding": [
                {
                  "system": "http://spor.azure-api.net/sms/api/v2/SubstanceDefinition",
                  "code": "100000091744",
                  "display": "Lysine acetate"
                }
              ]
            }
          },
          "strength": [
            {
              "concentrationRatio": {
                "numerator": {
                  "value": 9.3,
                  "_comparator": {
                    "extension": [
                      {
                        "url": "http://ema.europa.eu/fhir/extension/comparator",
                        "valueCoding": {
                          "system": "https://spor.ema.europa.eu/v1/lists/100000000008",
                          "code": "100000000049",
                          "display": "equal to"
                        }
                      }
                    ]
                  },
                  "unit": "milligram(s)",
                  "system": "http://spor.ema.europa.eu/v1/lists/100000110633",
                  "code": "100000110655"
                },
                "denominator": {
                  "value": 1,
                  "unit": "millilitre(s)",
                  "system": "http://spor.ema.europa.eu/v1/lists/100000110633",
                  "code": "100000110662"
                }
              },
              "referenceStrength": [
                {
                  "substance": {
                    "concept": {
                      "coding": [
                        {
                          "system": "https://spor.ema.europa.eu/v2/SubstanceDefinition",
                          "code": "100000091077",
                          "display": "Lysine"
                        }
                      ]
                    }
                  },
                  "strengthRatio": {
                    "numerator": {
                      "value": 6.6,
                      "_comparator": {
                        "extension": [
                          {
                            "url": "http://ema.europa.eu/fhir/extension/comparator",
                            "valueCoding": {
                              "system": "https://spor.ema.europa.eu/v1/lists/100000000008",
                              "code": "100000000049",
                              "display": "equal to"
                            }
                          }
                        ]
                      },
                      "unit": "milligram(s)",
                      "system": "http://spor.ema.europa.eu/v1/lists/100000110633",
                      "code": "100000110655"
                    },
                    "denominator": {
                      "value": 1,
                      "unit": "millilitre(s)",
                      "system": "http://spor.ema.europa.eu/v1/lists/100000110633",
                      "code": "100000110662"
                    }
                  }
                }
              ]
            }
          ]
        }
      },
      "request": {
        "method": "PUT",
        "url": "Ingredient/Smofkabiven-Emulsion-SE-IS-Ingredient08"
      },
      "fullUrl": "https://hl7-eu.github.io/unicom-ig/branches/mpd-r4b/Ingredient/Smofkabiven-Emulsion-SE-IS-Ingredient08"
    },
    {
      "resource": {
        "resourceType": "Ingredient",
        "id": "Smofkabiven-Emulsion-SE-IS-Ingredient09",
        "meta": {
          "versionId": "1",
          "lastUpdated": "2022-10-29T06:44:57.075+00:00"
        },
        "status": "active",
        "for": [
          {
            "reference": "MedicinalProductDefinition/Smofkabiven-Emulsion-SE-IS-MedicinalProductDefinition"
          },
          {
            "reference": "ManufacturedItemDefinition/Smofkabiven-Emulsion-SE-IS-ManufacturedItemDefinition"
          },
          {
            "reference": "AdministrableProductDefinition/Smofkabiven-Emulsion-SE-IS-AdministrableProductDefinition"
          }
        ],
        "role": {
          "coding": [
            {
              "system": "http://spor.ema.europa.eu/v1/lists/100000072050",
              "code": "100000072072",
              "display": "Active"
            }
          ]
        },
        "function": [
          {
            "coding": [
              {
                "system": "http://spor.ema.europa.eu/v1/lists/200000004946",
                "code": "200000004948",
                "display": "Specified Substance Group 1 to Parent"
              }
            ]
          }
        ],
        "substance": {
          "code": {
            "concept": {
              "coding": [
                {
                  "system": "http://spor.azure-api.net/sms/api/v2/SubstanceDefinition",
                  "code": "100000091715",
                  "display": "Magnesium sulfate heptahydrate"
                }
              ]
            }
          },
          "strength": [
            {
              "concentrationRatio": {
                "numerator": {
                  "value": 2.47,
                  "_comparator": {
                    "extension": [
                      {
                        "url": "http://ema.europa.eu/fhir/extension/comparator",
                        "valueCoding": {
                          "system": "https://spor.ema.europa.eu/v1/lists/100000000008",
                          "code": "100000000049",
                          "display": "equal to"
                        }
                      }
                    ]
                  },
                  "unit": "milligram(s)",
                  "system": "http://spor.ema.europa.eu/v1/lists/100000110633",
                  "code": "100000110655"
                },
                "denominator": {
                  "value": 1,
                  "unit": "millilitre(s)",
                  "system": "http://spor.ema.europa.eu/v1/lists/100000110633",
                  "code": "100000110662"
                }
              },
              "referenceStrength": [
                {
                  "substance": {
                    "concept": {
                      "coding": [
                        {
                          "system": "https://spor.ema.europa.eu/v2/SubstanceDefinition",
                          "code": "100000092599",
                          "display": "Magneisum sulfate"
                        }
                      ]
                    }
                  },
                  "strengthRatio": {
                    "numerator": {
                      "value": 1.2,
                      "_comparator": {
                        "extension": [
                          {
                            "url": "http://ema.europa.eu/fhir/extension/comparator",
                            "valueCoding": {
                              "system": "https://spor.ema.europa.eu/v1/lists/100000000008",
                              "code": "100000000049",
                              "display": "equal to"
                            }
                          }
                        ]
                      },
                      "unit": "milligram(s)",
                      "system": "http://spor.ema.europa.eu/v1/lists/100000110633",
                      "code": "100000110655"
                    },
                    "denominator": {
                      "value": 1,
                      "unit": "millilitre(s)",
                      "system": "http://spor.ema.europa.eu/v1/lists/100000110633",
                      "code": "100000110662"
                    }
                  }
                }
              ]
            }
          ]
        }
      },
      "request": {
        "method": "PUT",
        "url": "Ingredient/Smofkabiven-Emulsion-SE-IS-Ingredient09"
      },
      "fullUrl": "https://hl7-eu.github.io/unicom-ig/branches/mpd-r4b/Ingredient/Smofkabiven-Emulsion-SE-IS-Ingredient09"
    },
    {
      "resource": {
        "resourceType": "Ingredient",
        "id": "Smofkabiven-Emulsion-SE-IS-Ingredient10",
        "meta": {
          "versionId": "1",
          "lastUpdated": "2022-10-29T06:44:57.095+00:00"
        },
        "status": "active",
        "for": [
          {
            "reference": "MedicinalProductDefinition/Smofkabiven-Emulsion-SE-IS-MedicinalProductDefinition"
          },
          {
            "reference": "ManufacturedItemDefinition/Smofkabiven-Emulsion-SE-IS-ManufacturedItemDefinition"
          },
          {
            "reference": "AdministrableProductDefinition/Smofkabiven-Emulsion-SE-IS-AdministrableProductDefinition"
          }
        ],
        "role": {
          "coding": [
            {
              "system": "http://spor.ema.europa.eu/v1/lists/100000072050",
              "code": "100000072072",
              "display": "Active"
            }
          ]
        },
        "function": [
          {
            "coding": [
              {
                "system": "http://spor.ema.europa.eu/v1/lists/200000004946",
                "code": "200000004948",
                "display": "Specified Substance Group 1 to Parent"
              }
            ]
          }
        ],
        "substance": {
          "code": {
            "concept": {
              "coding": [
                {
                  "system": "http://spor.azure-api.net/sms/api/v2/SubstanceDefinition",
                  "code": "100000092414",
                  "display": "Methionine"
                }
              ]
            }
          },
          "strength": [
            {
              "concentrationRatio": {
                "numerator": {
                  "value": 4.3,
                  "_comparator": {
                    "extension": [
                      {
                        "url": "http://ema.europa.eu/fhir/extension/comparator",
                        "valueCoding": {
                          "system": "https://spor.ema.europa.eu/v1/lists/100000000008",
                          "code": "100000000049",
                          "display": "equal to"
                        }
                      }
                    ]
                  },
                  "unit": "milligram(s)",
                  "system": "http://spor.ema.europa.eu/v1/lists/100000110633",
                  "code": "100000110655"
                },
                "denominator": {
                  "value": 1,
                  "unit": "millilitre(s)",
                  "system": "http://spor.ema.europa.eu/v1/lists/100000110633",
                  "code": "100000110662"
                }
              },
              "referenceStrength": [
                {
                  "substance": {
                    "concept": {
                      "coding": [
                        {
                          "system": "https://spor.ema.europa.eu/v2/SubstanceDefinition",
                          "code": "100000092414",
                          "display": "Methionine"
                        }
                      ]
                    }
                  },
                  "strengthRatio": {
                    "numerator": {
                      "value": 4.3,
                      "_comparator": {
                        "extension": [
                          {
                            "url": "http://ema.europa.eu/fhir/extension/comparator",
                            "valueCoding": {
                              "system": "https://spor.ema.europa.eu/v1/lists/100000000008",
                              "code": "100000000049",
                              "display": "equal to"
                            }
                          }
                        ]
                      },
                      "unit": "milligram(s)",
                      "system": "http://spor.ema.europa.eu/v1/lists/100000110633",
                      "code": "100000110655"
                    },
                    "denominator": {
                      "value": 1,
                      "unit": "millilitre(s)",
                      "system": "http://spor.ema.europa.eu/v1/lists/100000110633",
                      "code": "100000110662"
                    }
                  }
                }
              ]
            }
          ]
        }
      },
      "request": {
        "method": "PUT",
        "url": "Ingredient/Smofkabiven-Emulsion-SE-IS-Ingredient10"
      },
      "fullUrl": "https://hl7-eu.github.io/unicom-ig/branches/mpd-r4b/Ingredient/Smofkabiven-Emulsion-SE-IS-Ingredient10"
    }
  ]
}