{
  "id": "Suscard25mgbuckaltablett-SE-PLC-MedicinalProductDef-BBDL",
  "type": "transaction",
  "resourceType": "Bundle",
  "entry": [
    {
      "resource": {
        "resourceType": "MedicinalProductDefinition",
        "id": "Suscard25mgbuckaltablett-SE-PLC-MedicinalProductDef",
        "meta": {
          "versionId": "1",
          "lastUpdated": "2022-10-13T16:25:27.277+00:00"
        },
        "extension": [
          {
            "url": "http://ema.europa.eu/fhir/extension/authorisedDoseForm",
            "valueCoding": {
              "system": "http://spor.ema.europa.eu/v1/lists/200000000004~200000000006~200000000007~200000000008",
              "code": "100000073699",
              "display": "Buccal tablet"
            }
          }
        ],
        "identifier": [
          {
            "system": "http://ema.europa.eu/fhir/mpId",
            "value": "SE-100002766-00010409"
          },
          {
            "system": "http://ema.europa.eu/fhir/eurdId",
            "value": "1552"
          }
        ],
        "domain": {
          "coding": [
            {
              "system": "http://spor.ema.europa.eu/v1/lists/100000000004",
              "code": "100000000012",
              "display": "Human use"
            }
          ]
        },
        "status": {
          "coding": [
            {
              "system": "http://spor.ema.europa.eu/v1/lists/200000005003",
              "code": "200000005004",
              "display": "Current"
            }
          ]
        },
        "indication": "Angina pectoris.",
        "legalStatusOfSupply": {
          "coding": [
            {
              "system": "http://spor.ema.europa.eu/v1/lists/100000072051",
              "code": "100000072084",
              "display": "Medicinal product subject to medical prescription"
            }
          ]
        },
        "classification": [
          {
            "coding": [
              {
                "system": "http://spor.ema.europa.eu/v1/lists/100000093533",
                "code": "100000094611",
                "display": "C01DA02"
              }
            ]
          }
        ],
        "name": [
          {
            "productName": "Suscard 2,5 mg buckaltablett",
            "namePart": [
              {
                "part": "Suscard",
                "type": {
                  "coding": [
                    {
                      "system": "http://spor.ema.europa.eu/v1/lists/220000000000",
                      "code": "220000000002",
                      "display": "Invented name part"
                    }
                  ]
                }
              },
              {
                "part": "2.5 mg",
                "type": {
                  "coding": [
                    {
                      "system": "http://spor.ema.europa.eu/v1/lists/220000000000",
                      "code": "220000000004",
                      "display": "Strength part"
                    }
                  ]
                }
              },
              {
                "part": "buckaltablett",
                "type": {
                  "coding": [
                    {
                      "system": "http://spor.ema.europa.eu/v1/lists/220000000000",
                      "code": "220000000005",
                      "display": "Pharmaceutical dose form part"
                    }
                  ]
                }
              }
            ],
            "countryLanguage": [
              {
                "country": {
                  "coding": [
                    {
                      "system": "http://spor.ema.europa.eu/v1/lists/100000000002",
                      "code": "100000000535",
                      "display": "Sweden"
                    }
                  ]
                },
                "language": {
                  "coding": [
                    {
                      "system": "http://spor.ema.europa.eu/v1/lists/100000072057",
                      "code": "100000072288",
                      "display": "Swedish"
                    }
                  ]
                }
              }
            ]
          }
        ]
      },
      "request": {
        "method": "PUT",
        "url": "MedicinalProductDefinition/Suscard25mgbuckaltablett-SE-PLC-MedicinalProductDef"
      },
      "fullUrl": "https://hl7-eu.github.io/unicom-ig/branches/mpd-r4b/MedicinalProductDefinition/Suscard25mgbuckaltablett-SE-PLC-MedicinalProductDef"
    },
    {
      "resource": {
        "resourceType": "RegulatedAuthorization",
        "id": "Suscard25mgbuckaltablett-SE-PLC-RegAutho",
        "meta": {
          "versionId": "1",
          "lastUpdated": "2022-10-13T16:25:27.301+00:00"
        },
        "identifier": [
          {
            "system": "http://ema.europa.eu/fhir/MarketingAuthorizationNumber",
            "value": "10409"
          }
        ],
        "subject": [
          {
            "reference": "MedicinalProductDefinition/Suscard25mgbuckaltablett-SE-PLC-MedicinalProductDef"
          }
        ],
        "type": {
          "coding": [
            {
              "system": "http://spor.ema.europa.eu/v1/lists/220000000060",
              "code": "220000000061",
              "display": "Marketing Authorisation"
            }
          ]
        },
        "region": [
          {
            "coding": [
              {
                "system": "http://spor.ema.europa.eu/v1/lists/100000000002",
                "code": "100000000535",
                "display": "Sweden"
              }
            ]
          }
        ],
        "status": {
          "coding": [
            {
              "system": "http://spor.ema.europa.eu/v1/lists/100000072049",
              "code": "100000072099",
              "display": "Valid"
            }
          ]
        },
        "statusDate": "1986-06-13",
        "holder": {
          "identifier": {
            "system": "https://spor.ema.europa.eu/v1/locations",
            "value": "LOC-100016200"
          },
          "display": "Evolan Pharma AB"
        },
        "case": {
          "type": {
            "coding": [
              {
                "system": "http://ema.europa.eu/fhir/authorisationDateType",
                "code": "dateOfFirstAuthorisation",
                "display": "First Authorisation"
              }
            ]
          },
          "dateDateTime": "1986-06-13"
        }
      },
      "request": {
        "method": "PUT",
        "url": "RegulatedAuthorization/Suscard25mgbuckaltablett-SE-PLC-RegAutho"
      },
      "fullUrl": "https://hl7-eu.github.io/unicom-ig/branches/mpd-r4b/RegulatedAuthorization/Suscard25mgbuckaltablett-SE-PLC-RegAutho"
    },
    {
      "resource": {
        "resourceType": "PackagedProductDefinition",
        "id": "Suscard25mgbuckaltablett-SE-PLC-PackageProductDef01",
        "meta": {
          "versionId": "1",
          "lastUpdated": "2022-10-13T16:25:27.328+00:00"
        },
        "extension": [
          {
            "url": "http://ema.europa.eu/fhir/extension/containedItemQuantity",
            "valueQuantity": {
              "value": 30,
              "unit": "Tablet",
              "system": "http://spor.ema.europa.eu/v1/lists/200000000014",
              "code": "200000002152"
            }
          }
        ],
        "packageFor": [
          {
            "reference": "MedicinalProductDefinition/Suscard25mgbuckaltablett-SE-PLC-MedicinalProductDef"
          }
        ],
        "description": "Blister, 30 buckaltabletter",
        "_description": {
          "extension": [
            {
              "url": "http://ema.europa.eu/fhir/extension/language",
              "valueCoding": {
                "system": "http://spor.ema.europa.eu/v1/lists/100000072057",
                "code": "100000072288",
                "display": "Swedish"
              }
            }
          ]
        },
        "marketingStatus": [
          {
            "country": {
              "coding": [
                {
                  "system": "http://spor.ema.europa.eu/v1/lists/100000000002",
                  "code": "100000000535",
                  "display": "Sweden"
                }
              ]
            },
            "status": {
              "coding": [
                {
                  "system": "http://spor.ema.europa.eu/v1/lists/100000072052",
                  "code": "100000072083",
                  "display": "Marketed"
                }
              ]
            }
          }
        ],
        "package": {
          "type": {
            "coding": [
              {
                "system": "https://spor.ema.europa.eu/v1/lists/100000073346",
                "code": "100000073498",
                "display": "Box"
              }
            ]
          },
          "quantity": 1,
          "material": [
            {
              "coding": [
                {
                  "system": "https://spor.ema.europa.eu/v1/lists/200000003199",
                  "code": "200000003529",
                  "display": "Cardboard"
                }
              ]
            }
          ],
          "shelfLifeStorage": [
            {
              "type": {
                "coding": [
                  {
                    "system": "https://spor.ema.europa.eu/v1/lists/100000073343",
                    "code": "100000073403",
                    "display": "Shelf life of the medicinal product as packaged for sale"
                  }
                ]
              },
              "periodDuration": {
                "value": 3,
                "unit": "year",
                "system": "https://spor.ema.europa.eu/v1/lists/100000110633",
                "code": "200000003434"
              },
              "specialPrecautionsForStorage": [
                {
                  "coding": [
                    {
                      "system": "https://spor.ema.europa.eu/v1/lists/100000073344",
                      "code": "100000073425",
                      "display": "This medicinal product does not require any special temperature storage conditions"
                    }
                  ]
                }
              ]
            }
          ],
          "package": [
            {
              "type": {
                "coding": [
                  {
                    "system": "https://spor.ema.europa.eu/v1/lists/100000073346",
                    "code": "100000073496",
                    "display": "Blister"
                  }
                ]
              },
              "quantity": 3,
              "material": [
                {
                  "coding": [
                    {
                      "system": "https://spor.ema.europa.eu/v1/lists/200000003199",
                      "code": "200000003200",
                      "display": "Aluminium"
                    }
                  ]
                },
                {
                  "coding": [
                    {
                      "system": "https://spor.ema.europa.eu/v1/lists/200000003199",
                      "code": "200000003222",
                      "display": "PolyVinyl Chloride"
                    }
                  ]
                }
              ],
              "containedItem": [
                {
                  "item": {
                    "reference": {
                      "reference": "ManufacturedItemDefinition/Suscard25mgbuckaltablett-SE-PLC-ManufacturedItemDef"
                    }
                  },
                  "amount": {
                    "value": 3,
                    "unit": "Blister",
                    "system": "http://spor.ema.europa.eu/v1/lists/100000110633~200000000014",
                    "code": "200000002109"
                  }
                }
              ]
            }
          ]
        }
      },
      "request": {
        "method": "PUT",
        "url": "PackagedProductDefinition/Suscard25mgbuckaltablett-SE-PLC-PackageProductDef01"
      },
      "fullUrl": "https://hl7-eu.github.io/unicom-ig/branches/mpd-r4b/PackagedProductDefinition/Suscard25mgbuckaltablett-SE-PLC-PackageProductDef01"
    },
    {
      "resource": {
        "resourceType": "PackagedProductDefinition",
        "id": "Suscard25mgbuckaltablett-SE-PLC-PackageProductDef02",
        "meta": {
          "versionId": "1",
          "lastUpdated": "2022-10-13T16:25:27.339+00:00"
        },
        "extension": [
          {
            "url": "http://ema.europa.eu/fhir/extension/containedItemQuantity",
            "valueQuantity": {
              "value": 90,
              "unit": "Tablet",
              "system": "http://spor.ema.europa.eu/v1/lists/200000000014",
              "code": "200000002152"
            }
          }
        ],
        "packageFor": [
          {
            "reference": "MedicinalProductDefinition/Suscard25mgbuckaltablett-SE-PLC-MedicinalProductDef"
          }
        ],
        "description": "Blister, 90 buckaltabletter",
        "_description": {
          "extension": [
            {
              "url": "http://ema.europa.eu/fhir/extension/language",
              "valueCoding": {
                "system": "http://spor.ema.europa.eu/v1/lists/100000072057",
                "code": "100000072288",
                "display": "Swedish"
              }
            }
          ]
        },
        "marketingStatus": [
          {
            "country": {
              "coding": [
                {
                  "system": "http://spor.ema.europa.eu/v1/lists/100000000002",
                  "code": "100000000535",
                  "display": "Sweden"
                }
              ]
            },
            "status": {
              "coding": [
                {
                  "system": "http://spor.ema.europa.eu/v1/lists/100000072052",
                  "code": "100000072083",
                  "display": "Marketed"
                }
              ]
            }
          }
        ],
        "package": {
          "type": {
            "coding": [
              {
                "system": "https://spor.ema.europa.eu/v1/lists/100000073346",
                "code": "100000073498",
                "display": "Box"
              }
            ]
          },
          "quantity": 1,
          "material": [
            {
              "coding": [
                {
                  "system": "https://spor.ema.europa.eu/v1/lists/200000003199",
                  "code": "200000003529",
                  "display": "Cardboard"
                }
              ]
            }
          ],
          "shelfLifeStorage": [
            {
              "type": {
                "coding": [
                  {
                    "system": "https://spor.ema.europa.eu/v1/lists/100000073343",
                    "code": "100000073403",
                    "display": "Shelf life of the medicinal product as packaged for sale"
                  }
                ]
              },
              "periodDuration": {
                "value": 3,
                "unit": "year",
                "system": "https://spor.ema.europa.eu/v1/lists/100000110633",
                "code": "200000003434"
              },
              "specialPrecautionsForStorage": [
                {
                  "coding": [
                    {
                      "system": "https://spor.ema.europa.eu/v1/lists/100000073344",
                      "code": "100000073425",
                      "display": "This medicinal product does not require any special temperature storage conditions"
                    }
                  ]
                }
              ]
            }
          ],
          "package": [
            {
              "type": {
                "coding": [
                  {
                    "system": "https://spor.ema.europa.eu/v1/lists/100000073346",
                    "code": "100000073496",
                    "display": "Blister"
                  }
                ]
              },
              "quantity": 9,
              "material": [
                {
                  "coding": [
                    {
                      "system": "https://spor.ema.europa.eu/v1/lists/200000003199",
                      "code": "200000003200",
                      "display": "Aluminium"
                    }
                  ]
                },
                {
                  "coding": [
                    {
                      "system": "https://spor.ema.europa.eu/v1/lists/200000003199",
                      "code": "200000003222",
                      "display": "PolyVinyl Chloride"
                    }
                  ]
                }
              ],
              "containedItem": [
                {
                  "item": {
                    "reference": {
                      "reference": "ManufacturedItemDefinition/Suscard25mgbuckaltablett-SE-PLC-ManufacturedItemDef"
                    }
                  },
                  "amount": {
                    "value": 9,
                    "unit": "Blister",
                    "system": "http://spor.ema.europa.eu/v1/lists/100000110633~200000000014",
                    "code": "200000002109"
                  }
                }
              ]
            }
          ]
        }
      },
      "request": {
        "method": "PUT",
        "url": "PackagedProductDefinition/Suscard25mgbuckaltablett-SE-PLC-PackageProductDef02"
      },
      "fullUrl": "https://hl7-eu.github.io/unicom-ig/branches/mpd-r4b/PackagedProductDefinition/Suscard25mgbuckaltablett-SE-PLC-PackageProductDef02"
    },
    {
      "resource": {
        "resourceType": "ManufacturedItemDefinition",
        "id": "Suscard25mgbuckaltablett-SE-PLC-ManufacturedItemDef",
        "meta": {
          "versionId": "1",
          "lastUpdated": "2022-10-13T16:25:27.35+00:00"
        },
        "status": "active",
        "manufacturedDoseForm": {
          "coding": [
            {
              "system": "http://spor.ema.europa.eu/v1/lists/200000000004",
              "code": "100000073699",
              "display": "Buccal tablet"
            }
          ]
        },
        "unitOfPresentation": {
          "coding": [
            {
              "system": "http://spor.ema.europa.eu/v1/lists/200000000014",
              "code": "200000002152",
              "display": "Tablet"
            }
          ]
        }
      },
      "request": {
        "method": "PUT",
        "url": "ManufacturedItemDefinition/Suscard25mgbuckaltablett-SE-PLC-ManufacturedItemDef"
      },
      "fullUrl": "https://hl7-eu.github.io/unicom-ig/branches/mpd-r4b/ManufacturedItemDefinition/Suscard25mgbuckaltablett-SE-PLC-ManufacturedItemDef"
    },
    {
      "resource": {
        "resourceType": "Ingredient",
        "id": "Suscard25mgbuckaltablett-SE-PLC-Ingredient",
        "meta": {
          "versionId": "1",
          "lastUpdated": "2022-10-13T16:25:27.365+00:00"
        },
        "status": "active",
        "for": [
          {
            "reference": "MedicinalProductDefinition/Suscard25mgbuckaltablett-SE-PLC-MedicinalProductDef"
          },
          {
            "reference": "ManufacturedItemDefinition/Suscard25mgbuckaltablett-SE-PLC-ManufacturedItemDef"
          },
          {
            "reference": "AdministrableProductDefinition/Suscard25mgbuckaltablett-SE-PLC-AdminProductDef"
          }
        ],
        "role": {
          "coding": [
            {
              "system": "https://spor.ema.europa.eu/v1/lists/100000072050",
              "code": "100000072072",
              "display": "Active"
            }
          ]
        },
        "substance": {
          "code": {
            "concept": {
              "coding": [
                {
                  "system": "https://spor.ema.europa.eu/v2/SubstanceDefinition",
                  "code": "100000087614",
                  "display": "Glyceryl trinitrate"
                }
              ]
            }
          },
          "strength": [
            {
              "presentationRatio": {
                "numerator": {
                  "value": 2.5,
                  "_comparator": {
                    "extension": [
                      {
                        "url": "http://ema.europa.eu/fhir/extension/comparator",
                        "valueCoding": {
                          "system": "https://spor.ema.europa.eu/v1/lists/100000000008",
                          "code": "100000000049",
                          "display": "equal to"
                        }
                      }
                    ]
                  },
                  "unit": "milligram(s)",
                  "system": "https://spor.ema.europa.eu/v1/lists/100000110633",
                  "code": "100000110655"
                },
                "denominator": {
                  "value": 1,
                  "unit": "Tablet",
                  "system": "https://spor.ema.europa.eu/v1/lists/200000000014",
                  "code": "200000002152"
                }
              },
              "referenceStrength": [
                {
                  "substance": {
                    "concept": {
                      "coding": [
                        {
                          "system": "https://spor.ema.europa.eu/v2/SubstanceDefinition",
                          "code": "100000087614",
                          "display": "Glyceryl trinitrate"
                        }
                      ]
                    }
                  },
                  "strengthRatio": {
                    "numerator": {
                      "value": 2.5,
                      "_comparator": {
                        "extension": [
                          {
                            "url": "http://ema.europa.eu/fhir/extension/comparator",
                            "valueCoding": {
                              "system": "https://spor.ema.europa.eu/v1/lists/100000000008",
                              "code": "100000000049",
                              "display": "equal to"
                            }
                          }
                        ]
                      },
                      "unit": "milligram(s)",
                      "system": "https://spor.ema.europa.eu/v1/lists/100000110633",
                      "code": "100000110655"
                    },
                    "denominator": {
                      "value": 1,
                      "unit": "Tablet",
                      "system": "https://spor.ema.europa.eu/v1/lists/200000000014",
                      "code": "200000002152"
                    }
                  }
                }
              ]
            }
          ]
        }
      },
      "request": {
        "method": "PUT",
        "url": "Ingredient/Suscard25mgbuckaltablett-SE-PLC-Ingredient"
      },
      "fullUrl": "https://hl7-eu.github.io/unicom-ig/branches/mpd-r4b/Ingredient/Suscard25mgbuckaltablett-SE-PLC-Ingredient"
    }
  ]
}