{
  "id": "Tradolan50mgmlinjektionlosning-SE-PLC-MedicinalProductDef-BBDL",
  "type": "transaction",
  "resourceType": "Bundle",
  "entry": [
    {
      "resource": {
        "resourceType": "MedicinalProductDefinition",
        "id": "Tradolan50mgmlinjektionlosning-SE-PLC-MedicinalProductDef",
        "meta": {
          "versionId": "1",
          "lastUpdated": "2022-10-24T16:05:46.576+00:00"
        },
        "extension": [
          {
            "url": "http://ema.europa.eu/fhir/extension/authorisedDoseForm",
            "valueCoding": {
              "system": "http://spor.ema.europa.eu/v1/lists/200000000004~200000000006~200000000007~200000000008",
              "code": "100000073863",
              "display": "Solution for injection"
            }
          }
        ],
        "identifier": [
          {
            "system": "http://ema.europa.eu/fhir/mpId",
            "value": "SE-100000592-00013067"
          },
          {
            "system": "http://ema.europa.eu/fhir/eurdId",
            "value": "3002"
          }
        ],
        "domain": {
          "coding": [
            {
              "system": "http://spor.ema.europa.eu/v1/lists/100000000004",
              "code": "100000000012",
              "display": "Human use"
            }
          ]
        },
        "status": {
          "coding": [
            {
              "system": "http://spor.ema.europa.eu/v1/lists/200000005003",
              "code": "200000005004",
              "display": "Current"
            }
          ]
        },
        "indication": "Behandling av m\u00e5ttlig till sv\u00e5r sm\u00e4rta.",
        "legalStatusOfSupply": {
          "coding": [
            {
              "system": "http://spor.ema.europa.eu/v1/lists/100000072051",
              "code": "100000072084",
              "display": "Medicinal product subject to medical prescription"
            }
          ]
        },
        "classification": [
          {
            "coding": [
              {
                "system": "http://spor.ema.europa.eu/v1/lists/100000093533",
                "code": "100000097261",
                "display": "N02AX02"
              }
            ]
          }
        ],
        "name": [
          {
            "productName": "Tradolan 50 mg/ml injektionsv\u00e4tska, l\u00f6sning",
            "namePart": [
              {
                "part": "Tradolan",
                "type": {
                  "coding": [
                    {
                      "system": "http://spor.ema.europa.eu/v1/lists/220000000000",
                      "code": "220000000002",
                      "display": "Invented name part"
                    }
                  ]
                }
              },
              {
                "part": "50 mg/ml",
                "type": {
                  "coding": [
                    {
                      "system": "http://spor.ema.europa.eu/v1/lists/220000000000",
                      "code": "220000000004",
                      "display": "Strength part"
                    }
                  ]
                }
              },
              {
                "part": "injektionsv\u00e4tska, l\u00f6sning",
                "type": {
                  "coding": [
                    {
                      "system": "http://spor.ema.europa.eu/v1/lists/220000000000",
                      "code": "220000000005",
                      "display": "Pharmaceutical dose form part"
                    }
                  ]
                }
              }
            ],
            "countryLanguage": [
              {
                "country": {
                  "coding": [
                    {
                      "system": "http://spor.ema.europa.eu/v1/lists/100000000002",
                      "code": "100000000535",
                      "display": "Sweden"
                    }
                  ]
                },
                "language": {
                  "coding": [
                    {
                      "system": "http://spor.ema.europa.eu/v1/lists/100000072057",
                      "code": "100000072288",
                      "display": "Swedish"
                    }
                  ]
                }
              }
            ]
          }
        ]
      },
      "request": {
        "method": "PUT",
        "url": "MedicinalProductDefinition/Tradolan50mgmlinjektionlosning-SE-PLC-MedicinalProductDef"
      },
      "fullUrl": "https://hl7-eu.github.io/unicom-ig/branches/mpd-r4b/MedicinalProductDefinition/Tradolan50mgmlinjektionlosning-SE-PLC-MedicinalProductDef"
    },
    {
      "resource": {
        "resourceType": "RegulatedAuthorization",
        "id": "Tradolan50mgmlinjektionlosning-SE-PLC-RegAutho",
        "meta": {
          "versionId": "1",
          "lastUpdated": "2022-10-24T16:05:46.6+00:00"
        },
        "identifier": [
          {
            "system": "http://ema.europa.eu/fhir/MarketingAuthorizationNumber",
            "value": "13067"
          }
        ],
        "subject": [
          {
            "reference": "MedicinalProductDefinition/Tradolan50mgmlinjektionlosning-SE-PLC-MedicinalProductDef"
          }
        ],
        "type": {
          "coding": [
            {
              "system": "http://spor.ema.europa.eu/v1/lists/220000000060",
              "code": "220000000061",
              "display": "Marketing Authorisation"
            }
          ]
        },
        "region": [
          {
            "coding": [
              {
                "system": "http://spor.ema.europa.eu/v1/lists/100000000002",
                "code": "100000000535",
                "display": "Sweden"
              }
            ]
          }
        ],
        "status": {
          "coding": [
            {
              "system": "http://spor.ema.europa.eu/v1/lists/100000072049",
              "code": "100000072099",
              "display": "Valid"
            }
          ]
        },
        "statusDate": "1997-04-11",
        "holder": {
          "identifier": {
            "system": "https://spor.ema.europa.eu/v1/locations",
            "value": "LOC-100004168"
          },
          "display": "G.L. Pharma GmbH"
        },
        "case": {
          "type": {
            "coding": [
              {
                "system": "http://ema.europa.eu/fhir/authorisationDateType",
                "code": "dateOfFirstAuthorisation",
                "display": "First Authorisation"
              }
            ]
          },
          "dateDateTime": "1997-04-11"
        }
      },
      "request": {
        "method": "PUT",
        "url": "RegulatedAuthorization/Tradolan50mgmlinjektionlosning-SE-PLC-RegAutho"
      },
      "fullUrl": "https://hl7-eu.github.io/unicom-ig/branches/mpd-r4b/RegulatedAuthorization/Tradolan50mgmlinjektionlosning-SE-PLC-RegAutho"
    },
    {
      "resource": {
        "resourceType": "PackagedProductDefinition",
        "id": "Tradolan50mgmlinjektionlosning-SE-PLC-PackageProductDef",
        "meta": {
          "versionId": "1",
          "lastUpdated": "2022-10-24T16:05:46.63+00:00"
        },
        "extension": [
          {
            "url": "http://ema.europa.eu/fhir/extension/containedItemQuantity",
            "valueQuantity": {
              "value": 5,
              "unit": "Ampoule",
              "system": "http://spor.ema.europa.eu/v1/lists/200000000014",
              "code": "200000002164"
            }
          }
        ],
        "packageFor": [
          {
            "reference": "MedicinalProductDefinition/Tradolan50mgmlinjektionlosning-SE-PLC-MedicinalProductDef"
          }
        ],
        "description": "Ampull, 5 x 2 ml",
        "_description": {
          "extension": [
            {
              "url": "http://ema.europa.eu/fhir/extension/language",
              "valueCoding": {
                "system": "http://spor.ema.europa.eu/v1/lists/100000072057",
                "code": "100000072288",
                "display": "Swedish"
              }
            }
          ]
        },
        "marketingStatus": [
          {
            "country": {
              "coding": [
                {
                  "system": "http://spor.ema.europa.eu/v1/lists/100000000002",
                  "code": "100000000535",
                  "display": "Sweden"
                }
              ]
            },
            "status": {
              "coding": [
                {
                  "system": "http://spor.ema.europa.eu/v1/lists/100000072052",
                  "code": "100000072083",
                  "display": "Marketed"
                }
              ]
            }
          }
        ],
        "package": {
          "type": {
            "coding": [
              {
                "system": "https://spor.ema.europa.eu/v1/lists/100000073346",
                "code": "100000073498",
                "display": "Box"
              }
            ]
          },
          "quantity": 1,
          "material": [
            {
              "coding": [
                {
                  "system": "https://spor.ema.europa.eu/v1/lists/200000003199",
                  "code": "200000003529",
                  "display": "Cardboard"
                }
              ]
            }
          ],
          "shelfLifeStorage": [
            {
              "type": {
                "coding": [
                  {
                    "system": "https://spor.ema.europa.eu/v1/lists/100000073343",
                    "code": "100000073403",
                    "display": "Shelf life of the medicinal product as packaged for sale"
                  }
                ]
              },
              "periodDuration": {
                "value": 5,
                "unit": "year",
                "system": "https://spor.ema.europa.eu/v1/lists/100000110633",
                "code": "200000003434"
              },
              "specialPrecautionsForStorage": [
                {
                  "coding": [
                    {
                      "system": "https://spor.ema.europa.eu/v1/lists/100000073344",
                      "code": "100000073424",
                      "display": "This medicinal product does not require any special storage conditions"
                    }
                  ]
                }
              ]
            }
          ],
          "package": [
            {
              "type": {
                "coding": [
                  {
                    "system": "https://spor.ema.europa.eu/v1/lists/100000073346",
                    "code": "100000073490",
                    "display": "Ampoule"
                  }
                ]
              },
              "quantity": 5,
              "material": [
                {
                  "coding": [
                    {
                      "system": "https://spor.ema.europa.eu/v1/lists/200000003199",
                      "code": "200000003203",
                      "display": "Glass"
                    }
                  ]
                }
              ],
              "containedItem": [
                {
                  "item": {
                    "reference": {
                      "reference": "ManufacturedItemDefinition/Tradolan50mgmlinjektionlosning-SE-PLC-ManufacturedItemDef"
                    }
                  },
                  "amount": {
                    "value": 2,
                    "unit": "millilitre(s)",
                    "system": "http://spor.ema.europa.eu/v1/lists/100000110633~200000000014",
                    "code": "100000110662"
                  }
                }
              ]
            }
          ]
        }
      },
      "request": {
        "method": "PUT",
        "url": "PackagedProductDefinition/Tradolan50mgmlinjektionlosning-SE-PLC-PackageProductDef"
      },
      "fullUrl": "https://hl7-eu.github.io/unicom-ig/branches/mpd-r4b/PackagedProductDefinition/Tradolan50mgmlinjektionlosning-SE-PLC-PackageProductDef"
    },
    {
      "resource": {
        "resourceType": "ManufacturedItemDefinition",
        "id": "Tradolan50mgmlinjektionlosning-SE-PLC-ManufacturedItemDef",
        "meta": {
          "versionId": "1",
          "lastUpdated": "2022-10-24T16:05:46.642+00:00"
        },
        "status": "active",
        "manufacturedDoseForm": {
          "coding": [
            {
              "system": "http://spor.ema.europa.eu/v1/lists/200000000004",
              "code": "100000073863",
              "display": "Solution for injection"
            }
          ]
        },
        "unitOfPresentation": {
          "coding": [
            {
              "system": "http://spor.ema.europa.eu/v1/lists/200000000014",
              "code": "200000002164",
              "display": "Ampoule"
            }
          ]
        }
      },
      "request": {
        "method": "PUT",
        "url": "ManufacturedItemDefinition/Tradolan50mgmlinjektionlosning-SE-PLC-ManufacturedItemDef"
      },
      "fullUrl": "https://hl7-eu.github.io/unicom-ig/branches/mpd-r4b/ManufacturedItemDefinition/Tradolan50mgmlinjektionlosning-SE-PLC-ManufacturedItemDef"
    },
    {
      "resource": {
        "resourceType": "Ingredient",
        "id": "Tradolan50mgmlinjektionlosning-SE-PLC-Ingredient01",
        "meta": {
          "versionId": "1",
          "lastUpdated": "2022-10-24T16:05:46.654+00:00"
        },
        "status": "active",
        "for": [
          {
            "reference": "MedicinalProductDefinition/Tradolan50mgmlinjektionlosning-SE-PLC-MedicinalProductDef"
          },
          {
            "reference": "ManufacturedItemDefinition/Tradolan50mgmlinjektionlosning-SE-PLC-ManufacturedItemDef"
          },
          {
            "reference": "AdministrableProductDefinition/Tradolan50mgmlinjektionlosning-SE-PLC-AdminProductDef"
          }
        ],
        "role": {
          "coding": [
            {
              "system": "https://spor.ema.europa.eu/v1/lists/100000072050",
              "code": "100000072072",
              "display": "Active"
            }
          ]
        },
        "substance": {
          "code": {
            "concept": {
              "coding": [
                {
                  "system": "https://spor.ema.europa.eu/v2/SubstanceDefinition",
                  "code": "100000093275",
                  "display": "Tramadol hydrochloride"
                }
              ]
            }
          },
          "strength": [
            {
              "concentrationRatio": {
                "numerator": {
                  "value": 50,
                  "_comparator": {
                    "extension": [
                      {
                        "url": "http://ema.europa.eu/fhir/extension/comparator",
                        "valueCoding": {
                          "system": "https://spor.ema.europa.eu/v1/lists/100000000008",
                          "code": "100000000049",
                          "display": "equal to"
                        }
                      }
                    ]
                  },
                  "unit": "milligram(s)",
                  "system": "https://spor.ema.europa.eu/v1/lists/100000110633",
                  "code": "100000110655"
                },
                "denominator": {
                  "value": 1,
                  "unit": "millilitre(s)",
                  "system": "https://spor.ema.europa.eu/v1/lists/100000110633",
                  "code": "100000110662"
                }
              },
              "referenceStrength": [
                {
                  "substance": {
                    "concept": {
                      "coding": [
                        {
                          "system": "https://spor.ema.europa.eu/v2/SubstanceDefinition",
                          "code": "100000077198",
                          "display": "Tramadol"
                        }
                      ]
                    }
                  },
                  "strengthRatio": {
                    "numerator": {
                      "value": 44,
                      "_comparator": {
                        "extension": [
                          {
                            "url": "http://ema.europa.eu/fhir/extension/comparator",
                            "valueCoding": {
                              "system": "https://spor.ema.europa.eu/v1/lists/100000000008",
                              "code": "100000000049",
                              "display": "equal to"
                            }
                          }
                        ]
                      },
                      "unit": "milligram(s)",
                      "system": "https://spor.ema.europa.eu/v1/lists/100000110633",
                      "code": "100000110655"
                    },
                    "denominator": {
                      "value": 1,
                      "unit": "millilitre(s)",
                      "system": "https://spor.ema.europa.eu/v1/lists/100000110633",
                      "code": "100000110662"
                    }
                  }
                }
              ]
            }
          ]
        }
      },
      "request": {
        "method": "PUT",
        "url": "Ingredient/Tradolan50mgmlinjektionlosning-SE-PLC-Ingredient01"
      },
      "fullUrl": "https://hl7-eu.github.io/unicom-ig/branches/mpd-r4b/Ingredient/Tradolan50mgmlinjektionlosning-SE-PLC-Ingredient01"
    },
    {
      "resource": {
        "resourceType": "Ingredient",
        "id": "Tradolan50mgmlinjektionlosning-SE-PLC-Ingredient02",
        "meta": {
          "versionId": "1",
          "lastUpdated": "2022-10-24T16:05:46.673+00:00"
        },
        "status": "active",
        "for": [
          {
            "reference": "MedicinalProductDefinition/Tradolan50mgmlinjektionlosning-SE-PLC-MedicinalProductDef"
          },
          {
            "reference": "ManufacturedItemDefinition/Tradolan50mgmlinjektionlosning-SE-PLC-ManufacturedItemDef"
          },
          {
            "reference": "AdministrableProductDefinition/Tradolan50mgmlinjektionlosning-SE-PLC-AdminProductDef"
          }
        ],
        "role": {
          "coding": [
            {
              "system": "https://spor.ema.europa.eu/v1/lists/100000072050",
              "code": "100000072082",
              "display": "Excipient"
            }
          ]
        },
        "substance": {
          "code": {
            "concept": {
              "coding": [
                {
                  "system": "https://spor.ema.europa.eu/v2/SubstanceDefinition",
                  "code": "100000089838",
                  "display": "Sodium acetate trihydrate"
                }
              ]
            }
          }
        }
      },
      "request": {
        "method": "PUT",
        "url": "Ingredient/Tradolan50mgmlinjektionlosning-SE-PLC-Ingredient02"
      },
      "fullUrl": "https://hl7-eu.github.io/unicom-ig/branches/mpd-r4b/Ingredient/Tradolan50mgmlinjektionlosning-SE-PLC-Ingredient02"
    }
  ]
}