{
  "id": "TramadolRetardActavis100mgdepot-SE-PLC-MedicinalProductDef-BBDL",
  "type": "transaction",
  "resourceType": "Bundle",
  "entry": [
    {
      "resource": {
        "resourceType": "MedicinalProductDefinition",
        "id": "TramadolRetardActavis100mgdepot-SE-PLC-MedicinalProductDef",
        "meta": {
          "versionId": "1",
          "lastUpdated": "2022-10-24T16:42:17.36+00:00"
        },
        "extension": [
          {
            "url": "http://ema.europa.eu/fhir/extension/authorisedDoseForm",
            "valueCoding": {
              "system": "http://spor.ema.europa.eu/v1/lists/200000000004~200000000006~200000000007~200000000008",
              "code": "100000073683",
              "display": "Prolonged-release tablet"
            }
          }
        ],
        "identifier": [
          {
            "system": "http://ema.europa.eu/fhir/mpId",
            "value": "SE-100000064-00024560"
          },
          {
            "system": "http://ema.europa.eu/fhir/eurdId",
            "value": "3002"
          }
        ],
        "domain": {
          "coding": [
            {
              "system": "http://spor.ema.europa.eu/v1/lists/100000000004",
              "code": "100000000012",
              "display": "Human use"
            }
          ]
        },
        "status": {
          "coding": [
            {
              "system": "http://spor.ema.europa.eu/v1/lists/200000005003",
              "code": "200000005004",
              "display": "Current"
            }
          ]
        },
        "indication": "Behandling av m\u00e5ttlig till sv\u00e5r sm\u00e4rta.",
        "legalStatusOfSupply": {
          "coding": [
            {
              "system": "http://spor.ema.europa.eu/v1/lists/100000072051",
              "code": "100000072084",
              "display": "Medicinal product subject to medical prescription"
            }
          ]
        },
        "classification": [
          {
            "coding": [
              {
                "system": "http://spor.ema.europa.eu/v1/lists/100000093533",
                "code": "100000097261",
                "display": "N02AX02"
              }
            ]
          }
        ],
        "name": [
          {
            "productName": "Tramadol Retard Actavis 100 mg depottablett",
            "namePart": [
              {
                "part": "Tramadol Retard Actavis",
                "type": {
                  "coding": [
                    {
                      "system": "http://spor.ema.europa.eu/v1/lists/220000000000",
                      "code": "220000000003",
                      "display": "Scientific name part"
                    }
                  ]
                }
              },
              {
                "part": "100 mg",
                "type": {
                  "coding": [
                    {
                      "system": "http://spor.ema.europa.eu/v1/lists/220000000000",
                      "code": "220000000004",
                      "display": "Strength part"
                    }
                  ]
                }
              },
              {
                "part": "depottablett",
                "type": {
                  "coding": [
                    {
                      "system": "http://spor.ema.europa.eu/v1/lists/220000000000",
                      "code": "220000000005",
                      "display": "Pharmaceutical dose form part"
                    }
                  ]
                }
              }
            ],
            "countryLanguage": [
              {
                "country": {
                  "coding": [
                    {
                      "system": "http://spor.ema.europa.eu/v1/lists/100000000002",
                      "code": "100000000535",
                      "display": "Sweden"
                    }
                  ]
                },
                "language": {
                  "coding": [
                    {
                      "system": "http://spor.ema.europa.eu/v1/lists/100000072057",
                      "code": "100000072288",
                      "display": "Swedish"
                    }
                  ]
                }
              }
            ]
          }
        ]
      },
      "request": {
        "method": "PUT",
        "url": "MedicinalProductDefinition/TramadolRetardActavis100mgdepot-SE-PLC-MedicinalProductDef"
      },
      "fullUrl": "https://hl7-eu.github.io/unicom-ig/branches/mpd-r4b/MedicinalProductDefinition/TramadolRetardActavis100mgdepot-SE-PLC-MedicinalProductDef"
    },
    {
      "resource": {
        "resourceType": "RegulatedAuthorization",
        "id": "TramadolRetardActavis100mgdepot-SE-PLC-RegAutho",
        "meta": {
          "versionId": "1",
          "lastUpdated": "2022-10-24T16:42:17.381+00:00"
        },
        "identifier": [
          {
            "system": "http://ema.europa.eu/fhir/MarketingAuthorizationNumber",
            "value": "24560"
          }
        ],
        "subject": [
          {
            "reference": "MedicinalProductDefinition/TramadolRetardActavis100mgdepot-SE-PLC-MedicinalProductDef"
          }
        ],
        "type": {
          "coding": [
            {
              "system": "http://spor.ema.europa.eu/v1/lists/220000000060",
              "code": "220000000061",
              "display": "Marketing Authorisation"
            }
          ]
        },
        "region": [
          {
            "coding": [
              {
                "system": "http://spor.ema.europa.eu/v1/lists/100000000002",
                "code": "100000000535",
                "display": "Sweden"
              }
            ]
          }
        ],
        "status": {
          "coding": [
            {
              "system": "http://spor.ema.europa.eu/v1/lists/100000072049",
              "code": "100000072099",
              "display": "Valid"
            }
          ]
        },
        "statusDate": "2007-06-15",
        "holder": {
          "identifier": {
            "system": "https://spor.ema.europa.eu/v1/locations",
            "value": "LOC-100001873"
          },
          "display": "Actavis Group PTC ehf"
        },
        "case": {
          "type": {
            "coding": [
              {
                "system": "http://ema.europa.eu/fhir/authorisationDateType",
                "code": "dateOfFirstAuthorisation",
                "display": "First Authorisation"
              }
            ]
          },
          "dateDateTime": "2007-06-15"
        }
      },
      "request": {
        "method": "PUT",
        "url": "RegulatedAuthorization/TramadolRetardActavis100mgdepot-SE-PLC-RegAutho"
      },
      "fullUrl": "https://hl7-eu.github.io/unicom-ig/branches/mpd-r4b/RegulatedAuthorization/TramadolRetardActavis100mgdepot-SE-PLC-RegAutho"
    },
    {
      "resource": {
        "resourceType": "PackagedProductDefinition",
        "id": "TramadolRetardActavis100mgdepot-SE-PLC-PackageProductDef01",
        "meta": {
          "versionId": "1",
          "lastUpdated": "2022-10-24T16:42:17.404+00:00"
        },
        "extension": [
          {
            "url": "http://ema.europa.eu/fhir/extension/containedItemQuantity",
            "valueQuantity": {
              "value": 100,
              "unit": "Tablet",
              "system": "http://spor.ema.europa.eu/v1/lists/200000000014",
              "code": "200000002152"
            }
          }
        ],
        "packageFor": [
          {
            "reference": "MedicinalProductDefinition/TramadolRetardActavis100mgdepot-SE-PLC-MedicinalProductDef"
          }
        ],
        "description": "Blister, 100 tabletter (genomskinlig)",
        "_description": {
          "extension": [
            {
              "url": "http://ema.europa.eu/fhir/extension/language",
              "valueCoding": {
                "system": "http://spor.ema.europa.eu/v1/lists/100000072057",
                "code": "100000072288",
                "display": "Swedish"
              }
            }
          ]
        },
        "marketingStatus": [
          {
            "country": {
              "coding": [
                {
                  "system": "http://spor.ema.europa.eu/v1/lists/100000000002",
                  "code": "100000000535",
                  "display": "Sweden"
                }
              ]
            },
            "status": {
              "coding": [
                {
                  "system": "http://spor.ema.europa.eu/v1/lists/100000072052",
                  "code": "100000072083",
                  "display": "Marketed"
                }
              ]
            }
          }
        ],
        "package": {
          "type": {
            "coding": [
              {
                "system": "https://spor.ema.europa.eu/v1/lists/100000073346",
                "code": "100000073498",
                "display": "Box"
              }
            ]
          },
          "quantity": 1,
          "material": [
            {
              "coding": [
                {
                  "system": "https://spor.ema.europa.eu/v1/lists/200000003199",
                  "code": "200000003529",
                  "display": "Cardboard"
                }
              ]
            }
          ],
          "shelfLifeStorage": [
            {
              "type": {
                "coding": [
                  {
                    "system": "https://spor.ema.europa.eu/v1/lists/100000073343",
                    "code": "100000073403",
                    "display": "Shelf life of the medicinal product as packaged for sale"
                  }
                ]
              },
              "periodDuration": {
                "value": 3,
                "unit": "year",
                "system": "https://spor.ema.europa.eu/v1/lists/100000110633",
                "code": "200000003434"
              },
              "specialPrecautionsForStorage": [
                {
                  "coding": [
                    {
                      "system": "https://spor.ema.europa.eu/v1/lists/100000073344",
                      "code": "100000073421",
                      "display": "Store in the original package"
                    }
                  ]
                },
                {
                  "coding": [
                    {
                      "system": "https://spor.ema.europa.eu/v1/lists/100000073344",
                      "code": "100000073425",
                      "display": "This medicinal product does not require any special temperature storage conditions"
                    }
                  ]
                }
              ]
            }
          ],
          "package": [
            {
              "type": {
                "coding": [
                  {
                    "system": "https://spor.ema.europa.eu/v1/lists/100000073346",
                    "code": "100000073496",
                    "display": "Blister"
                  }
                ]
              },
              "quantity": 10,
              "material": [
                {
                  "coding": [
                    {
                      "system": "https://spor.ema.europa.eu/v1/lists/200000003199",
                      "code": "200000003200",
                      "display": "Aluminium"
                    }
                  ]
                },
                {
                  "coding": [
                    {
                      "system": "https://spor.ema.europa.eu/v1/lists/200000003199",
                      "code": "200000003222",
                      "display": "PolyVinyl Chloride"
                    }
                  ]
                }
              ],
              "containedItem": [
                {
                  "item": {
                    "reference": {
                      "reference": "ManufacturedItemDefinition/TramadolRetardActavis100mgdepot-SE-PLC-ManufacturedItemDef"
                    }
                  },
                  "amount": {
                    "value": 10,
                    "unit": "Tablet",
                    "system": "http://spor.ema.europa.eu/v1/lists/100000110633~200000000014",
                    "code": "200000002152"
                  }
                }
              ]
            }
          ]
        }
      },
      "request": {
        "method": "PUT",
        "url": "PackagedProductDefinition/TramadolRetardActavis100mgdepot-SE-PLC-PackageProductDef01"
      },
      "fullUrl": "https://hl7-eu.github.io/unicom-ig/branches/mpd-r4b/PackagedProductDefinition/TramadolRetardActavis100mgdepot-SE-PLC-PackageProductDef01"
    },
    {
      "resource": {
        "resourceType": "PackagedProductDefinition",
        "id": "TramadolRetardActavis100mgdepot-SE-PLC-PackageProductDef02",
        "meta": {
          "versionId": "1",
          "lastUpdated": "2022-10-24T16:42:17.414+00:00"
        },
        "extension": [
          {
            "url": "http://ema.europa.eu/fhir/extension/containedItemQuantity",
            "valueQuantity": {
              "value": 20,
              "unit": "Tablet",
              "system": "http://spor.ema.europa.eu/v1/lists/200000000014",
              "code": "200000002152"
            }
          }
        ],
        "packageFor": [
          {
            "reference": "MedicinalProductDefinition/TramadolRetardActavis100mgdepot-SE-PLC-MedicinalProductDef"
          }
        ],
        "description": "Blister, 20 tabletter (genomskinlig)",
        "_description": {
          "extension": [
            {
              "url": "http://ema.europa.eu/fhir/extension/language",
              "valueCoding": {
                "system": "http://spor.ema.europa.eu/v1/lists/100000072057",
                "code": "100000072288",
                "display": "Swedish"
              }
            }
          ]
        },
        "marketingStatus": [
          {
            "country": {
              "coding": [
                {
                  "system": "http://spor.ema.europa.eu/v1/lists/100000000002",
                  "code": "100000000535",
                  "display": "Sweden"
                }
              ]
            },
            "status": {
              "coding": [
                {
                  "system": "http://spor.ema.europa.eu/v1/lists/100000072052",
                  "code": "100000072083",
                  "display": "Marketed"
                }
              ]
            }
          }
        ],
        "package": {
          "type": {
            "coding": [
              {
                "system": "https://spor.ema.europa.eu/v1/lists/100000073346",
                "code": "100000073498",
                "display": "Box"
              }
            ]
          },
          "quantity": 1,
          "material": [
            {
              "coding": [
                {
                  "system": "https://spor.ema.europa.eu/v1/lists/200000003199",
                  "code": "200000003529",
                  "display": "Cardboard"
                }
              ]
            }
          ],
          "shelfLifeStorage": [
            {
              "type": {
                "coding": [
                  {
                    "system": "https://spor.ema.europa.eu/v1/lists/100000073343",
                    "code": "100000073403",
                    "display": "Shelf life of the medicinal product as packaged for sale"
                  }
                ]
              },
              "periodDuration": {
                "value": 3,
                "unit": "year",
                "system": "https://spor.ema.europa.eu/v1/lists/100000110633",
                "code": "200000003434"
              },
              "specialPrecautionsForStorage": [
                {
                  "coding": [
                    {
                      "system": "https://spor.ema.europa.eu/v1/lists/100000073344",
                      "code": "100000073421",
                      "display": "Store in the original package"
                    }
                  ]
                },
                {
                  "coding": [
                    {
                      "system": "https://spor.ema.europa.eu/v1/lists/100000073344",
                      "code": "100000073425",
                      "display": "This medicinal product does not require any special temperature storage conditions"
                    }
                  ]
                }
              ]
            }
          ],
          "package": [
            {
              "type": {
                "coding": [
                  {
                    "system": "https://spor.ema.europa.eu/v1/lists/100000073346",
                    "code": "100000073496",
                    "display": "Blister"
                  }
                ]
              },
              "quantity": 2,
              "material": [
                {
                  "coding": [
                    {
                      "system": "https://spor.ema.europa.eu/v1/lists/200000003199",
                      "code": "200000003200",
                      "display": "Aluminium"
                    }
                  ]
                },
                {
                  "coding": [
                    {
                      "system": "https://spor.ema.europa.eu/v1/lists/200000003199",
                      "code": "200000003222",
                      "display": "PolyVinyl Chloride"
                    }
                  ]
                }
              ],
              "containedItem": [
                {
                  "item": {
                    "reference": {
                      "reference": "ManufacturedItemDefinition/TramadolRetardActavis100mgdepot-SE-PLC-ManufacturedItemDef"
                    }
                  },
                  "amount": {
                    "value": 10,
                    "unit": "Tablet",
                    "system": "http://spor.ema.europa.eu/v1/lists/100000110633~200000000014",
                    "code": "200000002152"
                  }
                }
              ]
            }
          ]
        }
      },
      "request": {
        "method": "PUT",
        "url": "PackagedProductDefinition/TramadolRetardActavis100mgdepot-SE-PLC-PackageProductDef02"
      },
      "fullUrl": "https://hl7-eu.github.io/unicom-ig/branches/mpd-r4b/PackagedProductDefinition/TramadolRetardActavis100mgdepot-SE-PLC-PackageProductDef02"
    },
    {
      "resource": {
        "resourceType": "ManufacturedItemDefinition",
        "id": "TramadolRetardActavis100mgdepot-SE-PLC-ManufacturedItemDef",
        "meta": {
          "versionId": "1",
          "lastUpdated": "2022-10-24T16:42:17.424+00:00"
        },
        "status": "active",
        "manufacturedDoseForm": {
          "coding": [
            {
              "system": "http://spor.ema.europa.eu/v1/lists/200000000004",
              "code": "100000073683",
              "display": "Prolonged-release tablet"
            }
          ]
        },
        "unitOfPresentation": {
          "coding": [
            {
              "system": "http://spor.ema.europa.eu/v1/lists/200000000014",
              "code": "200000002152",
              "display": "Tablet"
            }
          ]
        }
      },
      "request": {
        "method": "PUT",
        "url": "ManufacturedItemDefinition/TramadolRetardActavis100mgdepot-SE-PLC-ManufacturedItemDef"
      },
      "fullUrl": "https://hl7-eu.github.io/unicom-ig/branches/mpd-r4b/ManufacturedItemDefinition/TramadolRetardActavis100mgdepot-SE-PLC-ManufacturedItemDef"
    },
    {
      "resource": {
        "resourceType": "Ingredient",
        "id": "TramadolRetardActavis100mgdepot-SE-PLC-Ingredient01",
        "meta": {
          "versionId": "1",
          "lastUpdated": "2022-10-24T16:42:17.434+00:00"
        },
        "status": "active",
        "for": [
          {
            "reference": "MedicinalProductDefinition/TramadolRetardActavis100mgdepot-SE-PLC-MedicinalProductDef"
          },
          {
            "reference": "ManufacturedItemDefinition/TramadolRetardActavis100mgdepot-SE-PLC-ManufacturedItemDef"
          },
          {
            "reference": "AdministrableProductDefinition/TramadolRetardActavis100mgdepot-SE-PLC-AdminProductDef"
          }
        ],
        "role": {
          "coding": [
            {
              "system": "https://spor.ema.europa.eu/v1/lists/100000072050",
              "code": "100000072072",
              "display": "Active"
            }
          ]
        },
        "substance": {
          "code": {
            "concept": {
              "coding": [
                {
                  "system": "https://spor.ema.europa.eu/v2/SubstanceDefinition",
                  "code": "100000093275",
                  "display": "Tramadol hydrochloride"
                }
              ]
            }
          },
          "strength": [
            {
              "presentationRatio": {
                "numerator": {
                  "value": 100,
                  "_comparator": {
                    "extension": [
                      {
                        "url": "http://ema.europa.eu/fhir/extension/comparator",
                        "valueCoding": {
                          "system": "https://spor.ema.europa.eu/v1/lists/100000000008",
                          "code": "100000000049",
                          "display": "equal to"
                        }
                      }
                    ]
                  },
                  "unit": "milligram(s)",
                  "system": "https://spor.ema.europa.eu/v1/lists/100000110633",
                  "code": "100000110655"
                },
                "denominator": {
                  "value": 1,
                  "unit": "Tablet",
                  "system": "https://spor.ema.europa.eu/v1/lists/200000000014",
                  "code": "200000002152"
                }
              },
              "referenceStrength": [
                {
                  "substance": {
                    "concept": {
                      "coding": [
                        {
                          "system": "https://spor.ema.europa.eu/v2/SubstanceDefinition",
                          "code": "100000077198",
                          "display": "Tramadol"
                        }
                      ]
                    }
                  },
                  "strengthRatio": {
                    "numerator": {
                      "value": 88,
                      "_comparator": {
                        "extension": [
                          {
                            "url": "http://ema.europa.eu/fhir/extension/comparator",
                            "valueCoding": {
                              "system": "https://spor.ema.europa.eu/v1/lists/100000000008",
                              "code": "100000000049",
                              "display": "equal to"
                            }
                          }
                        ]
                      },
                      "unit": "milligram(s)",
                      "system": "https://spor.ema.europa.eu/v1/lists/100000110633",
                      "code": "100000110655"
                    },
                    "denominator": {
                      "value": 1,
                      "unit": "Tablet",
                      "system": "https://spor.ema.europa.eu/v1/lists/200000000014",
                      "code": "200000002152"
                    }
                  }
                }
              ]
            }
          ]
        }
      },
      "request": {
        "method": "PUT",
        "url": "Ingredient/TramadolRetardActavis100mgdepot-SE-PLC-Ingredient01"
      },
      "fullUrl": "https://hl7-eu.github.io/unicom-ig/branches/mpd-r4b/Ingredient/TramadolRetardActavis100mgdepot-SE-PLC-Ingredient01"
    },
    {
      "resource": {
        "resourceType": "Ingredient",
        "id": "TramadolRetardActavis100mgdepot-SE-PLC-Ingredient02",
        "meta": {
          "versionId": "2",
          "lastUpdated": "2022-10-24T16:46:51.877+00:00"
        },
        "status": "active",
        "for": [
          {
            "reference": "MedicinalProductDefinition/TramadolRetardActavis100mgdepot-SE-PLC-MedicinalProductDef"
          },
          {
            "reference": "ManufacturedItemDefinition/TramadolRetardActavis100mgdepot-SE-PLC-ManufacturedItemDef"
          },
          {
            "reference": "AdministrableProductDefinition/TramadolRetardActavis100mgdepot-SE-PLC-AdminProductDef"
          }
        ],
        "role": {
          "coding": [
            {
              "system": "https://spor.ema.europa.eu/v1/lists/100000072050",
              "code": "100000072082",
              "display": "Excipient"
            }
          ]
        },
        "substance": {
          "code": {
            "concept": {
              "coding": [
                {
                  "system": "https://spor.ema.europa.eu/v2/SubstanceDefinition",
                  "code": "100000092393",
                  "display": "Calcium hydrogen phosphate dihydrate"
                }
              ]
            }
          }
        }
      },
      "request": {
        "method": "PUT",
        "url": "Ingredient/TramadolRetardActavis100mgdepot-SE-PLC-Ingredient02"
      },
      "fullUrl": "https://hl7-eu.github.io/unicom-ig/branches/mpd-r4b/Ingredient/TramadolRetardActavis100mgdepot-SE-PLC-Ingredient02"
    },
    {
      "resource": {
        "resourceType": "Ingredient",
        "id": "TramadolRetardActavis100mgdepot-SE-PLC-Ingredient03",
        "meta": {
          "versionId": "2",
          "lastUpdated": "2022-10-24T16:46:51.901+00:00"
        },
        "status": "active",
        "for": [
          {
            "reference": "MedicinalProductDefinition/TramadolRetardActavis100mgdepot-SE-PLC-MedicinalProductDef"
          },
          {
            "reference": "ManufacturedItemDefinition/TramadolRetardActavis100mgdepot-SE-PLC-ManufacturedItemDef"
          },
          {
            "reference": "AdministrableProductDefinition/TramadolRetardActavis100mgdepot-SE-PLC-AdminProductDef"
          }
        ],
        "role": {
          "coding": [
            {
              "system": "https://spor.ema.europa.eu/v1/lists/100000072050",
              "code": "100000072082",
              "display": "Excipient"
            }
          ]
        },
        "substance": {
          "code": {
            "concept": {
              "coding": [
                {
                  "system": "https://spor.ema.europa.eu/v2/SubstanceDefinition",
                  "code": "100000088586",
                  "display": "Magnesium stearate"
                }
              ]
            }
          }
        }
      },
      "request": {
        "method": "PUT",
        "url": "Ingredient/TramadolRetardActavis100mgdepot-SE-PLC-Ingredient03"
      },
      "fullUrl": "https://hl7-eu.github.io/unicom-ig/branches/mpd-r4b/Ingredient/TramadolRetardActavis100mgdepot-SE-PLC-Ingredient03"
    },
    {
      "resource": {
        "resourceType": "Ingredient",
        "id": "TramadolRetardActavis100mgdepot-SE-PLC-Ingredient04",
        "meta": {
          "versionId": "2",
          "lastUpdated": "2022-10-24T16:46:51.914+00:00"
        },
        "status": "active",
        "for": [
          {
            "reference": "MedicinalProductDefinition/TramadolRetardActavis100mgdepot-SE-PLC-MedicinalProductDef"
          },
          {
            "reference": "ManufacturedItemDefinition/TramadolRetardActavis100mgdepot-SE-PLC-ManufacturedItemDef"
          },
          {
            "reference": "AdministrableProductDefinition/TramadolRetardActavis100mgdepot-SE-PLC-AdminProductDef"
          }
        ],
        "role": {
          "coding": [
            {
              "system": "https://spor.ema.europa.eu/v1/lists/100000072050",
              "code": "100000072082",
              "display": "Excipient"
            }
          ]
        },
        "substance": {
          "code": {
            "concept": {
              "coding": [
                {
                  "system": "https://spor.ema.europa.eu/v2/SubstanceDefinition",
                  "code": "100000092242",
                  "display": "Silica, colloidal anhydrous"
                }
              ]
            }
          }
        }
      },
      "request": {
        "method": "PUT",
        "url": "Ingredient/TramadolRetardActavis100mgdepot-SE-PLC-Ingredient04"
      },
      "fullUrl": "https://hl7-eu.github.io/unicom-ig/branches/mpd-r4b/Ingredient/TramadolRetardActavis100mgdepot-SE-PLC-Ingredient04"
    }
  ]
}