{
  "id": "VaxigripTetra-0.5ml-Suspension-SE-AJ-MedicinalProductDefinition-BBDL",
  "type": "transaction",
  "resourceType": "Bundle",
  "entry": [
    {
      "resource": {
        "resourceType": "MedicinalProductDefinition",
        "id": "VaxigripTetra-0.5ml-Suspension-SE-AJ-MedicinalProductDefinition",
        "meta": {
          "versionId": "1",
          "lastUpdated": "2022-06-30T09:49:47.198+00:00"
        },
        "extension": [
          {
            "url": "http://ema.europa.eu/fhir/extension/authorisedDoseForm",
            "valueCoding": {
              "system": "http://spor.ema.europa.eu/v1/lists/200000000007",
              "code": "100000074063",
              "display": "Suspension for injection in pre-filled syringe"
            }
          }
        ],
        "identifier": [
          {
            "system": "http://ema.europa.eu/fhir/mpId",
            "value": "SE-100005958-00053400"
          },
          {
            "system": "http://ema.europa.eu/fhir/eurdId",
            "value": "10298"
          }
        ],
        "domain": {
          "coding": [
            {
              "system": "http://spor.ema.europa.eu/v1/lists/100000000004",
              "code": "100000000012",
              "display": "human use"
            }
          ]
        },
        "status": {
          "coding": [
            {
              "system": "http://spor.ema.europa.eu/v1/lists/200000005003",
              "code": "200000005004",
              "display": "Current"
            }
          ]
        },
        "indication": "VaxigripTetra \u00e4r avsett f\u00f6r att f\u00f6rebygga influensa orsakad av de tv\u00e5 subtyper av influensa A virus och  tv\u00e5 typer av influensa B virus som finns i vaccinet f\u00f6r: - aktiv immunisering av vuxna, inklusive gravida kvinnor, och barn fr\u00e5n 6 m\u00e5nader och upp\u00e5t - passivt skydd av nyf\u00f6dda och sp\u00e4dbarn under 6 m\u00e5nader efter vaccinering av gravida kvinnor (se  avsnitt 4.4, 4.6 och 5.1) Anv\u00e4ndning av VaxigripTetra ska bed\u00f6mas p\u00e5 basis av officiella rekommendationer.",
        "legalStatusOfSupply": {
          "coding": [
            {
              "system": "http://spor.ema.europa.eu/v1/lists/100000072051",
              "code": "100000072084",
              "display": "Medicinal product subject to medical prescription"
            }
          ]
        },
        "classification": [
          {
            "coding": [
              {
                "system": "http://spor.ema.europa.eu/v1/lists/100000093533",
                "code": "100000096563",
                "display": "J07BB02"
              }
            ]
          }
        ],
        "name": [
          {
            "productName": "VaxigripTetra Injektionsv\u00e4tska, suspension, f\u00f6rfylld spruta",
            "namePart": [
              {
                "part": "VaxigripTetra",
                "type": {
                  "coding": [
                    {
                      "system": "http://spor.ema.europa.eu/v1/lists/220000000000",
                      "code": "220000000002",
                      "display": "Invented Name Part"
                    }
                  ]
                }
              },
              {
                "part": "Injektionsv\u00e4tska, suspension, f\u00f6rfylld spruta",
                "type": {
                  "coding": [
                    {
                      "system": "http://spor.ema.europa.eu/v1/lists/220000000000",
                      "code": "220000000005",
                      "display": "Pharmaceutical dose form part"
                    }
                  ]
                }
              }
            ],
            "countryLanguage": [
              {
                "country": {
                  "coding": [
                    {
                      "system": "http://spor.ema.europa.eu/v1/lists/100000000002",
                      "code": "100000000535",
                      "display": "Sweden"
                    }
                  ]
                },
                "language": {
                  "coding": [
                    {
                      "system": "http://spor.ema.europa.eu/v1/lists/100000072057",
                      "code": "100000072288",
                      "display": "Swedish"
                    }
                  ]
                }
              }
            ]
          }
        ]
      },
      "request": {
        "method": "PUT",
        "url": "MedicinalProductDefinition/VaxigripTetra-0.5ml-Suspension-SE-AJ-MedicinalProductDefinition"
      },
      "fullUrl": "https://hl7-eu.github.io/unicom-ig/branches/mpd-r4b/MedicinalProductDefinition/VaxigripTetra-0.5ml-Suspension-SE-AJ-MedicinalProductDefinition"
    },
    {
      "resource": {
        "resourceType": "RegulatedAuthorization",
        "id": "VaxigripTetra-0.5ml-Suspension-SE-AJ-RegulatedAuthorization",
        "meta": {
          "versionId": "1",
          "lastUpdated": "2022-06-30T09:49:47.216+00:00"
        },
        "identifier": [
          {
            "system": "http://ema.europa.eu/fhir/MarketingAuthorizationNumber",
            "value": "53400"
          }
        ],
        "subject": [
          {
            "reference": "MedicinalProductDefinition/VaxigripTetra-0.5ml-Suspension-SE-AJ-MedicinalProductDefinition"
          }
        ],
        "type": {
          "coding": [
            {
              "system": "http://spor.ema.europa.eu/v1/lists/220000000060",
              "code": "220000000061",
              "display": "Marketing Authorisation"
            }
          ]
        },
        "region": [
          {
            "coding": [
              {
                "system": "http://spor.ema.europa.eu/v1/lists/100000000002",
                "code": "100000000535",
                "display": "Sweden"
              }
            ]
          }
        ],
        "status": {
          "coding": [
            {
              "system": "http://spor.ema.europa.eu/v1/lists/100000072049",
              "code": "100000072099",
              "display": "Valid"
            }
          ]
        },
        "statusDate": "2016-11-25",
        "holder": {
          "identifier": {
            "system": "http://spor.ema.europa.eu/v1/locations",
            "value": "LOC-100010588"
          },
          "display": "Sanofi Pasteur Europe"
        },
        "case": {
          "type": {
            "coding": [
              {
                "system": "http://ema.europa.eu/fhir/authorisationDateType",
                "code": "dateOfFirstAuthorisation",
                "display": "First Authorisation"
              }
            ]
          },
          "dateDateTime": "2016-11-25"
        }
      },
      "request": {
        "method": "PUT",
        "url": "RegulatedAuthorization/VaxigripTetra-0.5ml-Suspension-SE-AJ-RegulatedAuthorization"
      },
      "fullUrl": "https://hl7-eu.github.io/unicom-ig/branches/mpd-r4b/RegulatedAuthorization/VaxigripTetra-0.5ml-Suspension-SE-AJ-RegulatedAuthorization"
    },
    {
      "resource": {
        "resourceType": "PackagedProductDefinition",
        "id": "VaxigripTetra-0.5ml-Suspension-SE-AJ-PackagedProductDefinition01",
        "meta": {
          "versionId": "1",
          "lastUpdated": "2022-06-30T09:49:47.243+00:00"
        },
        "extension": [
          {
            "url": "http://ema.europa.eu/fhir/extension/containedItemQuantity",
            "valueQuantity": {
              "value": 1,
              "unit": "syringe",
              "system": "http://spor.ema.europa.eu/v1/lists/200000000014",
              "code": "200000002150"
            }
          }
        ],
        "packageFor": [
          {
            "reference": "MedicinalProductDefinition/VaxigripTetra-0.5ml-Suspension-SE-AJ-MedicinalProductDefinition"
          }
        ],
        "description": "f\u00f6rfylld spruta, 1 x 0,5 ml (med injektionsn\u00e5l)",
        "_description": {
          "extension": [
            {
              "url": "http://ema.europa.eu/fhir/extension/language",
              "valueCoding": {
                "system": "http://spor.ema.europa.eu/v1/lists/100000072057",
                "code": "100000072288",
                "display": "Swedish"
              }
            }
          ]
        },
        "marketingStatus": [
          {
            "country": {
              "coding": [
                {
                  "system": "http://spor.ema.europa.eu/v1/lists/100000000002",
                  "code": "100000000535",
                  "display": "Sweden"
                }
              ]
            },
            "status": {
              "coding": [
                {
                  "system": "http://spor.ema.europa.eu/v1/lists/100000072052",
                  "code": "100000072083",
                  "display": "Marketed"
                }
              ]
            }
          }
        ],
        "package": {
          "type": {
            "coding": [
              {
                "system": "https://spor.ema.europa.eu/v1/lists/100000073346",
                "code": "100000073498",
                "display": "Box"
              }
            ]
          },
          "quantity": 1,
          "material": [
            {
              "coding": [
                {
                  "system": "https://spor.ema.europa.eu/v1/lists/200000003199",
                  "code": "200000003529",
                  "display": "Cardboard"
                }
              ]
            }
          ],
          "shelfLifeStorage": [
            {
              "type": {
                "coding": [
                  {
                    "system": "https://spor.ema.europa.eu/v1/lists/100000073343",
                    "code": "100000073403",
                    "display": "Shelf life of the medicinal product as packaged for sale"
                  }
                ]
              },
              "periodDuration": {
                "value": 1,
                "unit": "year",
                "system": "https://spor.ema.europa.eu/v1/lists/100000110633",
                "code": "200000003434"
              },
              "specialPrecautionsForStorage": [
                {
                  "coding": [
                    {
                      "system": "https://spor.ema.europa.eu/v1/lists/100000073344",
                      "code": "100000073414",
                      "display": "Store in a refrigerator (2\u00b0C - 8\u00b0C)"
                    }
                  ]
                },
                {
                  "coding": [
                    {
                      "system": "https://spor.ema.europa.eu/v1/lists/100000073344",
                      "code": "100000073420",
                      "display": "Do not freeze"
                    }
                  ]
                },
                {
                  "coding": [
                    {
                      "system": "https://spor.ema.europa.eu/v1/lists/100000073344",
                      "code": "100000073421",
                      "display": "Store in the original package"
                    }
                  ]
                },
                {
                  "coding": [
                    {
                      "system": "https://spor.ema.europa.eu/v1/lists/100000073344",
                      "code": "100000073426",
                      "display": "in order to protect from light"
                    }
                  ]
                }
              ]
            }
          ],
          "package": [
            {
              "type": {
                "coding": [
                  {
                    "system": "https://spor.ema.europa.eu/v1/lists/100000073346",
                    "code": "100000174066",
                    "display": "Unit-dose blister"
                  }
                ]
              },
              "quantity": 1,
              "material": [
                {
                  "coding": [
                    {
                      "system": "https://spor.ema.europa.eu/v1/lists/200000003199",
                      "code": "200000003208",
                      "display": "Plastic"
                    }
                  ]
                }
              ],
              "package": [
                {
                  "type": {
                    "coding": [
                      {
                        "system": "https://spor.ema.europa.eu/v1/lists/100000073346",
                        "code": "100000073544",
                        "display": "Pre-filled syringe"
                      }
                    ]
                  },
                  "quantity": 1,
                  "material": [
                    {
                      "coding": [
                        {
                          "system": "https://spor.ema.europa.eu/v1/lists/200000003199",
                          "code": "200000003204",
                          "display": "Glass type I"
                        }
                      ]
                    }
                  ],
                  "containedItem": [
                    {
                      "item": {
                        "reference": {
                          "reference": "ManufacturedItemDefinition/VaxigripTetra-0.5ml-Suspension-SE-AJ-ManufacturedItemDefinition"
                        }
                      },
                      "amount": {
                        "value": 0.5,
                        "unit": "Millilitre(s)",
                        "system": "http://spor.ema.europa.eu/v1/lists/100000110633",
                        "code": "100000110662"
                      }
                    }
                  ]
                }
              ]
            }
          ]
        }
      },
      "request": {
        "method": "PUT",
        "url": "PackagedProductDefinition/VaxigripTetra-0.5ml-Suspension-SE-AJ-PackagedProductDefinition01"
      },
      "fullUrl": "https://hl7-eu.github.io/unicom-ig/branches/mpd-r4b/PackagedProductDefinition/VaxigripTetra-0.5ml-Suspension-SE-AJ-PackagedProductDefinition01"
    },
    {
      "resource": {
        "resourceType": "PackagedProductDefinition",
        "id": "VaxigripTetra-0.5ml-Suspension-SE-AJ-PackagedProductDefinition02",
        "meta": {
          "versionId": "1",
          "lastUpdated": "2022-06-30T09:49:47.256+00:00"
        },
        "extension": [
          {
            "url": "http://ema.europa.eu/fhir/extension/containedItemQuantity",
            "valueQuantity": {
              "value": 10,
              "unit": "syringe",
              "system": "http://spor.ema.europa.eu/v1/lists/200000000014",
              "code": "200000002150"
            }
          }
        ],
        "packageFor": [
          {
            "reference": "MedicinalProductDefinition/VaxigripTetra-0.5ml-Suspension-SE-AJ-MedicinalProductDefinition"
          }
        ],
        "description": "F\u00f6rfylld spruta, 10 x 0,5 ml (med injektionsn\u00e5l)",
        "_description": {
          "extension": [
            {
              "url": "http://ema.europa.eu/fhir/extension/language",
              "valueCoding": {
                "system": "http://spor.ema.europa.eu/v1/lists/100000072057",
                "code": "100000072288",
                "display": "Swedish"
              }
            }
          ]
        },
        "marketingStatus": [
          {
            "country": {
              "coding": [
                {
                  "system": "http://spor.ema.europa.eu/v1/lists/100000000002",
                  "code": "100000000535",
                  "display": "Sweden"
                }
              ]
            },
            "status": {
              "coding": [
                {
                  "system": "http://spor.ema.europa.eu/v1/lists/100000072052",
                  "code": "100000072083",
                  "display": "Marketed"
                }
              ]
            }
          }
        ],
        "package": {
          "type": {
            "coding": [
              {
                "system": "https://spor.ema.europa.eu/v1/lists/100000073346",
                "code": "100000073498",
                "display": "Box"
              }
            ]
          },
          "quantity": 1,
          "material": [
            {
              "coding": [
                {
                  "system": "https://spor.ema.europa.eu/v1/lists/200000003199",
                  "code": "200000003529",
                  "display": "Cardboard"
                }
              ]
            }
          ],
          "shelfLifeStorage": [
            {
              "type": {
                "coding": [
                  {
                    "system": "https://spor.ema.europa.eu/v1/lists/100000073343",
                    "code": "100000073403",
                    "display": "Shelf life of the medicinal product as packaged for sale"
                  }
                ]
              },
              "periodDuration": {
                "value": 1,
                "unit": "year",
                "system": "https://spor.ema.europa.eu/v1/lists/100000110633",
                "code": "200000003434"
              },
              "specialPrecautionsForStorage": [
                {
                  "coding": [
                    {
                      "system": "https://spor.ema.europa.eu/v1/lists/100000073344",
                      "code": "100000073414",
                      "display": "Store in a refrigerator (2\u00b0C - 8\u00b0C)"
                    }
                  ]
                },
                {
                  "coding": [
                    {
                      "system": "https://spor.ema.europa.eu/v1/lists/100000073344",
                      "code": "100000073420",
                      "display": "Do not freeze"
                    }
                  ]
                },
                {
                  "coding": [
                    {
                      "system": "https://spor.ema.europa.eu/v1/lists/100000073344",
                      "code": "100000073421",
                      "display": "Store in the original package"
                    }
                  ]
                },
                {
                  "coding": [
                    {
                      "system": "https://spor.ema.europa.eu/v1/lists/100000073344",
                      "code": "100000073426",
                      "display": "in order to protect from light"
                    }
                  ]
                }
              ]
            }
          ],
          "package": [
            {
              "type": {
                "coding": [
                  {
                    "system": "https://spor.ema.europa.eu/v1/lists/100000073346",
                    "code": "100000137702",
                    "display": "Container"
                  }
                ]
              },
              "quantity": 2,
              "material": [
                {
                  "coding": [
                    {
                      "system": "https://spor.ema.europa.eu/v1/lists/200000003199",
                      "code": "200000003208",
                      "display": "Plastic"
                    }
                  ]
                }
              ],
              "package": [
                {
                  "type": {
                    "coding": [
                      {
                        "system": "https://spor.ema.europa.eu/v1/lists/100000073346",
                        "code": "100000073544",
                        "display": "Pre-filled syringe"
                      }
                    ]
                  },
                  "quantity": 5,
                  "material": [
                    {
                      "coding": [
                        {
                          "system": "https://spor.ema.europa.eu/v1/lists/200000003199",
                          "code": "200000003204",
                          "display": "Glass type I"
                        }
                      ]
                    }
                  ],
                  "containedItem": [
                    {
                      "item": {
                        "reference": {
                          "reference": "ManufacturedItemDefinition/VaxigripTetra-0.5ml-Suspension-SE-AJ-ManufacturedItemDefinition"
                        }
                      },
                      "amount": {
                        "value": 0.5,
                        "unit": "Millilitre(s)",
                        "system": "http://spor.ema.europa.eu/v1/lists/100000110633",
                        "code": "100000110662"
                      }
                    }
                  ]
                }
              ]
            }
          ]
        }
      },
      "request": {
        "method": "PUT",
        "url": "PackagedProductDefinition/VaxigripTetra-0.5ml-Suspension-SE-AJ-PackagedProductDefinition02"
      },
      "fullUrl": "https://hl7-eu.github.io/unicom-ig/branches/mpd-r4b/PackagedProductDefinition/VaxigripTetra-0.5ml-Suspension-SE-AJ-PackagedProductDefinition02"
    },
    {
      "resource": {
        "resourceType": "PackagedProductDefinition",
        "id": "VaxigripTetra-0.5ml-Suspension-SE-AJ-PackagedProductDefinition03",
        "meta": {
          "versionId": "1",
          "lastUpdated": "2022-06-30T09:49:47.269+00:00"
        },
        "extension": [
          {
            "url": "http://ema.europa.eu/fhir/extension/containedItemQuantity",
            "valueQuantity": {
              "value": 10,
              "unit": "syringe",
              "system": "http://spor.ema.europa.eu/v1/lists/200000000014",
              "code": "200000002150"
            }
          }
        ],
        "packageFor": [
          {
            "reference": "MedicinalProductDefinition/VaxigripTetra-0.5ml-Suspension-SE-AJ-MedicinalProductDefinition"
          }
        ],
        "description": "whatever the company calls the package in swedish",
        "_description": {
          "extension": [
            {
              "url": "http://ema.europa.eu/fhir/extension/language",
              "valueCoding": {
                "system": "http://spor.ema.europa.eu/v1/lists/100000072057",
                "code": "100000072288",
                "display": "Swedish"
              }
            }
          ]
        },
        "marketingStatus": [
          {
            "country": {
              "coding": [
                {
                  "system": "http://spor.ema.europa.eu/v1/lists/100000000002",
                  "code": "100000000535",
                  "display": "Sweden"
                }
              ]
            },
            "status": {
              "coding": [
                {
                  "system": "http://spor.ema.europa.eu/v1/lists/100000072052",
                  "code": "100000072083",
                  "display": "Marketed"
                }
              ]
            }
          }
        ],
        "package": {
          "type": {
            "coding": [
              {
                "system": "https://spor.ema.europa.eu/v1/lists/100000073346",
                "code": "100000073498",
                "display": "Box"
              }
            ]
          },
          "quantity": 1,
          "material": [
            {
              "coding": [
                {
                  "system": "https://spor.ema.europa.eu/v1/lists/200000003199",
                  "code": "200000003529",
                  "display": "Cardboard"
                }
              ]
            }
          ],
          "shelfLifeStorage": [
            {
              "type": {
                "coding": [
                  {
                    "system": "https://spor.ema.europa.eu/v1/lists/100000073343",
                    "code": "100000073403",
                    "display": "Shelf life of the medicinal product as packaged for sale"
                  }
                ]
              },
              "periodDuration": {
                "value": 1,
                "unit": "year",
                "system": "https://spor.ema.europa.eu/v1/lists/100000110633",
                "code": "200000003434"
              },
              "specialPrecautionsForStorage": [
                {
                  "coding": [
                    {
                      "system": "https://spor.ema.europa.eu/v1/lists/100000073344",
                      "code": "100000073414",
                      "display": "Store in a refrigerator (2\u00b0C - 8\u00b0C)"
                    }
                  ]
                },
                {
                  "coding": [
                    {
                      "system": "https://spor.ema.europa.eu/v1/lists/100000073344",
                      "code": "100000073420",
                      "display": "Do not freeze"
                    }
                  ]
                },
                {
                  "coding": [
                    {
                      "system": "https://spor.ema.europa.eu/v1/lists/100000073344",
                      "code": "100000073421",
                      "display": "Store in the original package"
                    }
                  ]
                },
                {
                  "coding": [
                    {
                      "system": "https://spor.ema.europa.eu/v1/lists/100000073344",
                      "code": "100000073426",
                      "display": "in order to protect from light"
                    }
                  ]
                }
              ]
            }
          ],
          "package": [
            {
              "type": {
                "coding": [
                  {
                    "system": "https://spor.ema.europa.eu/v1/lists/100000073346",
                    "code": "100000137702",
                    "display": "Container"
                  }
                ]
              },
              "quantity": 2,
              "material": [
                {
                  "coding": [
                    {
                      "system": "https://spor.ema.europa.eu/v1/lists/200000003199",
                      "code": "200000003208",
                      "display": "Plastic"
                    }
                  ]
                }
              ],
              "package": [
                {
                  "type": {
                    "coding": [
                      {
                        "system": "https://spor.ema.europa.eu/v1/lists/100000073346",
                        "code": "100000073544",
                        "display": "Pre-filled syringe"
                      }
                    ]
                  },
                  "quantity": 5,
                  "material": [
                    {
                      "coding": [
                        {
                          "system": "https://spor.ema.europa.eu/v1/lists/200000003199",
                          "code": "200000003204",
                          "display": "Glass type I"
                        }
                      ]
                    }
                  ],
                  "containedItem": [
                    {
                      "item": {
                        "reference": {
                          "reference": "ManufacturedItemDefinition/VaxigripTetra-0.5ml-Suspension-SE-AJ-ManufacturedItemDefinition"
                        }
                      },
                      "amount": {
                        "value": 0.5,
                        "unit": "Millilitre(s)",
                        "system": "http://spor.ema.europa.eu/v1/lists/100000110633",
                        "code": "100000110662"
                      }
                    }
                  ]
                }
              ]
            }
          ]
        }
      },
      "request": {
        "method": "PUT",
        "url": "PackagedProductDefinition/VaxigripTetra-0.5ml-Suspension-SE-AJ-PackagedProductDefinition03"
      },
      "fullUrl": "https://hl7-eu.github.io/unicom-ig/branches/mpd-r4b/PackagedProductDefinition/VaxigripTetra-0.5ml-Suspension-SE-AJ-PackagedProductDefinition03"
    },
    {
      "resource": {
        "resourceType": "ManufacturedItemDefinition",
        "id": "VaxigripTetra-0.5ml-Suspension-SE-AJ-ManufacturedItemDefinition",
        "meta": {
          "versionId": "1",
          "lastUpdated": "2022-06-30T09:49:47.279+00:00"
        },
        "status": "active",
        "manufacturedDoseForm": {
          "coding": [
            {
              "system": "http://spor.ema.europa.eu/v1/lists/200000000004",
              "code": "100000073864",
              "display": "suspension for injection"
            }
          ]
        },
        "unitOfPresentation": {
          "coding": [
            {
              "system": "http://spor.ema.europa.eu/v1/lists/200000000014",
              "code": "200000002150",
              "display": "syringe"
            }
          ]
        }
      },
      "request": {
        "method": "PUT",
        "url": "ManufacturedItemDefinition/VaxigripTetra-0.5ml-Suspension-SE-AJ-ManufacturedItemDefinition"
      },
      "fullUrl": "https://hl7-eu.github.io/unicom-ig/branches/mpd-r4b/ManufacturedItemDefinition/VaxigripTetra-0.5ml-Suspension-SE-AJ-ManufacturedItemDefinition"
    },
    {
      "resource": {
        "resourceType": "Ingredient",
        "id": "VaxigripTetra-0.5ml-Suspension-SE-AJ-Ingredient01",
        "meta": {
          "versionId": "1",
          "lastUpdated": "2022-06-30T09:49:47.289+00:00"
        },
        "status": "active",
        "for": [
          {
            "reference": "MedicinalProductDefinition/VaxigripTetra-0.5ml-Suspension-SE-AJ-MedicinalProductDefinition"
          },
          {
            "reference": "ManufacturedItemDefinition/VaxigripTetra-0.5ml-Suspension-SE-AJ-ManufacturedItemDefinition"
          },
          {
            "reference": "AdministrableProductDefinition/VaxigripTetra-0.5ml-Suspension-SE-AJ-AdministrableProductDef"
          }
        ],
        "role": {
          "coding": [
            {
              "system": "http://spor.ema.europa.eu/v1/lists/100000072050",
              "code": "100000072072",
              "display": "Active"
            }
          ]
        },
        "substance": {
          "code": {
            "concept": {
              "coding": [
                {
                  "system": "http://spor.azure-api.net/sms/api/v2/SubstanceDefinition",
                  "code": "300000034518",
                  "display": "Influenza A virus, A/Cambodia/e0826360/2020 (H3N2) - like strain (A/Tasmania/503/2020, IVR-221), Inactivated"
                }
              ]
            }
          },
          "strength": [
            {
              "presentationRatio": {
                "numerator": {
                  "value": 15,
                  "_comparator": {
                    "extension": [
                      {
                        "url": "http://ema.europa.eu/fhir/extension/comparator",
                        "valueCoding": {
                          "system": "https://spor.ema.europa.eu/v1/lists/100000000008",
                          "code": "100000000049",
                          "display": "equal to"
                        }
                      }
                    ]
                  },
                  "unit": "microgram(s)",
                  "system": "https://spor.ema.europa.eu/v1/lists/100000110633",
                  "code": "100000110656"
                },
                "denominator": {
                  "value": 1,
                  "unit": "syringe",
                  "system": "https://spor.ema.europa.eu/v1/lists/200000000014",
                  "code": "200000002150"
                }
              },
              "referenceStrength": [
                {
                  "substance": {
                    "concept": {
                      "coding": [
                        {
                          "system": "https://spor.ema.europa.eu/v2/SubstanceDefinition",
                          "code": "300000034518",
                          "display": "Influenza A virus, A/Cambodia/e0826360/2020 (H3N2) - like strain (A/Tasmania/503/2020, IVR-221), Inactivated"
                        }
                      ]
                    }
                  },
                  "strengthRatio": {
                    "numerator": {
                      "value": 15,
                      "_comparator": {
                        "extension": [
                          {
                            "url": "http://ema.europa.eu/fhir/extension/comparator",
                            "valueCoding": {
                              "system": "https://spor.ema.europa.eu/v1/lists/100000000008",
                              "code": "100000000049",
                              "display": "equal to"
                            }
                          }
                        ]
                      },
                      "unit": "microgram(s)",
                      "system": "https://spor.ema.europa.eu/v1/lists/100000110633",
                      "code": "100000110656"
                    },
                    "denominator": {
                      "value": 1,
                      "unit": "syringe",
                      "system": "https://spor.ema.europa.eu/v1/lists/200000000014",
                      "code": "200000002150"
                    }
                  }
                }
              ]
            }
          ]
        }
      },
      "request": {
        "method": "PUT",
        "url": "Ingredient/VaxigripTetra-0.5ml-Suspension-SE-AJ-Ingredient01"
      },
      "fullUrl": "https://hl7-eu.github.io/unicom-ig/branches/mpd-r4b/Ingredient/VaxigripTetra-0.5ml-Suspension-SE-AJ-Ingredient01"
    },
    {
      "resource": {
        "resourceType": "Ingredient",
        "id": "VaxigripTetra-0.5ml-Suspension-SE-AJ-Ingredient02",
        "meta": {
          "versionId": "1",
          "lastUpdated": "2022-06-30T09:49:47.303+00:00"
        },
        "status": "active",
        "for": [
          {
            "reference": "MedicinalProductDefinition/VaxigripTetra-0.5ml-Suspension-SE-AJ-MedicinalProductDefinition"
          },
          {
            "reference": "ManufacturedItemDefinition/VaxigripTetra-0.5ml-Suspension-SE-AJ-ManufacturedItemDefinition"
          },
          {
            "reference": "AdministrableProductDefinition/VaxigripTetra-0.5ml-Suspension-SE-AJ-AdministrableProductDef"
          }
        ],
        "role": {
          "coding": [
            {
              "system": "http://spor.ema.europa.eu/v1/lists/100000072050",
              "code": "100000072072",
              "display": "Active"
            }
          ]
        },
        "substance": {
          "code": {
            "concept": {
              "coding": [
                {
                  "system": "http://spor.azure-api.net/sms/api/v2/SubstanceDefinition",
                  "code": "300000034498",
                  "display": "A/Victoria/2570/2019 (H1N1)pdm09-like strain (A/Victoria/2570/2019, IVR-215)"
                }
              ]
            }
          },
          "strength": [
            {
              "presentationRatio": {
                "numerator": {
                  "value": 15,
                  "_comparator": {
                    "extension": [
                      {
                        "url": "http://ema.europa.eu/fhir/extension/comparator",
                        "valueCoding": {
                          "system": "https://spor.ema.europa.eu/v1/lists/100000000008",
                          "code": "100000000049",
                          "display": "equal to"
                        }
                      }
                    ]
                  },
                  "unit": "microgram(s)",
                  "system": "https://spor.ema.europa.eu/v1/lists/100000110633",
                  "code": "100000110656"
                },
                "denominator": {
                  "value": 1,
                  "unit": "syringe",
                  "system": "https://spor.ema.europa.eu/v1/lists/200000000014",
                  "code": "200000002150"
                }
              },
              "referenceStrength": [
                {
                  "substance": {
                    "concept": {
                      "coding": [
                        {
                          "system": "https://spor.ema.europa.eu/v2/SubstanceDefinition",
                          "code": "300000034498",
                          "display": "A/Victoria/2570/2019 (H1N1)pdm09-like strain (A/Victoria/2570/2019, IVR-215)"
                        }
                      ]
                    }
                  },
                  "strengthRatio": {
                    "numerator": {
                      "value": 15,
                      "_comparator": {
                        "extension": [
                          {
                            "url": "http://ema.europa.eu/fhir/extension/comparator",
                            "valueCoding": {
                              "system": "https://spor.ema.europa.eu/v1/lists/100000000008",
                              "code": "100000000049",
                              "display": "equal to"
                            }
                          }
                        ]
                      },
                      "unit": "microgram(s)",
                      "system": "https://spor.ema.europa.eu/v1/lists/100000110633",
                      "code": "100000110656"
                    },
                    "denominator": {
                      "value": 1,
                      "unit": "syringe",
                      "system": "https://spor.ema.europa.eu/v1/lists/200000000014",
                      "code": "200000002150"
                    }
                  }
                }
              ]
            }
          ]
        }
      },
      "request": {
        "method": "PUT",
        "url": "Ingredient/VaxigripTetra-0.5ml-Suspension-SE-AJ-Ingredient02"
      },
      "fullUrl": "https://hl7-eu.github.io/unicom-ig/branches/mpd-r4b/Ingredient/VaxigripTetra-0.5ml-Suspension-SE-AJ-Ingredient02"
    },
    {
      "resource": {
        "resourceType": "Ingredient",
        "id": "VaxigripTetra-0.5ml-Suspension-SE-AJ-Ingredient03",
        "meta": {
          "versionId": "1",
          "lastUpdated": "2022-06-30T09:49:47.317+00:00"
        },
        "status": "active",
        "for": [
          {
            "reference": "MedicinalProductDefinition/VaxigripTetra-0.5ml-Suspension-SE-AJ-MedicinalProductDefinition"
          },
          {
            "reference": "ManufacturedItemDefinition/VaxigripTetra-0.5ml-Suspension-SE-AJ-ManufacturedItemDefinition"
          },
          {
            "reference": "AdministrableProductDefinition/VaxigripTetra-0.5ml-Suspension-SE-AJ-AdministrableProductDef"
          }
        ],
        "role": {
          "coding": [
            {
              "system": "http://spor.ema.europa.eu/v1/lists/100000072050",
              "code": "100000072072",
              "display": "Active"
            }
          ]
        },
        "substance": {
          "code": {
            "concept": {
              "coding": [
                {
                  "system": "http://spor.azure-api.net/sms/api/v2/SubstanceDefinition",
                  "code": "100000164127",
                  "display": "B/PHUKET/3073/2013-LIKE VIRUS (B/PHUKET/3073/2013, WILD TYPE)"
                }
              ]
            }
          },
          "strength": [
            {
              "presentationRatio": {
                "numerator": {
                  "value": 15,
                  "_comparator": {
                    "extension": [
                      {
                        "url": "http://ema.europa.eu/fhir/extension/comparator",
                        "valueCoding": {
                          "system": "https://spor.ema.europa.eu/v1/lists/100000000008",
                          "code": "100000000049",
                          "display": "equal to"
                        }
                      }
                    ]
                  },
                  "unit": "microgram(s)",
                  "system": "https://spor.ema.europa.eu/v1/lists/100000110633",
                  "code": "100000110656"
                },
                "denominator": {
                  "value": 1,
                  "unit": "syringe",
                  "system": "https://spor.ema.europa.eu/v1/lists/200000000014",
                  "code": "200000002150"
                }
              },
              "referenceStrength": [
                {
                  "substance": {
                    "concept": {
                      "coding": [
                        {
                          "system": "https://spor.ema.europa.eu/v2/SubstanceDefinition",
                          "code": "100000164127",
                          "display": "B/PHUKET/3073/2013-LIKE VIRUS (B/PHUKET/3073/2013, WILD TYPE)"
                        }
                      ]
                    }
                  },
                  "strengthRatio": {
                    "numerator": {
                      "value": 15,
                      "_comparator": {
                        "extension": [
                          {
                            "url": "http://ema.europa.eu/fhir/extension/comparator",
                            "valueCoding": {
                              "system": "https://spor.ema.europa.eu/v1/lists/100000000008",
                              "code": "100000000049",
                              "display": "equal to"
                            }
                          }
                        ]
                      },
                      "unit": "microgram(s)",
                      "system": "https://spor.ema.europa.eu/v1/lists/100000110633",
                      "code": "100000110656"
                    },
                    "denominator": {
                      "value": 1,
                      "unit": "syringe",
                      "system": "https://spor.ema.europa.eu/v1/lists/200000000014",
                      "code": "200000002150"
                    }
                  }
                }
              ]
            }
          ]
        }
      },
      "request": {
        "method": "PUT",
        "url": "Ingredient/VaxigripTetra-0.5ml-Suspension-SE-AJ-Ingredient03"
      },
      "fullUrl": "https://hl7-eu.github.io/unicom-ig/branches/mpd-r4b/Ingredient/VaxigripTetra-0.5ml-Suspension-SE-AJ-Ingredient03"
    },
    {
      "resource": {
        "resourceType": "Ingredient",
        "id": "VaxigripTetra-0.5ml-Suspension-SE-AJ-Ingredient04",
        "meta": {
          "versionId": "1",
          "lastUpdated": "2022-06-30T09:49:47.329+00:00"
        },
        "status": "active",
        "for": [
          {
            "reference": "MedicinalProductDefinition/VaxigripTetra-0.5ml-Suspension-SE-AJ-MedicinalProductDefinition"
          },
          {
            "reference": "ManufacturedItemDefinition/VaxigripTetra-0.5ml-Suspension-SE-AJ-ManufacturedItemDefinition"
          },
          {
            "reference": "AdministrableProductDefinition/VaxigripTetra-0.5ml-Suspension-SE-AJ-AdministrableProductDef"
          }
        ],
        "role": {
          "coding": [
            {
              "system": "http://spor.ema.europa.eu/v1/lists/100000072050",
              "code": "100000072072",
              "display": "Active"
            }
          ]
        },
        "substance": {
          "code": {
            "concept": {
              "coding": [
                {
                  "system": "http://spor.azure-api.net/sms/api/v2/SubstanceDefinition",
                  "code": "300000017594",
                  "display": "B/Washington/02/2019 - like virus (B/Washington/02/2019, wild type)"
                }
              ]
            }
          },
          "strength": [
            {
              "presentationRatio": {
                "numerator": {
                  "value": 15,
                  "_comparator": {
                    "extension": [
                      {
                        "url": "http://ema.europa.eu/fhir/extension/comparator",
                        "valueCoding": {
                          "system": "https://spor.ema.europa.eu/v1/lists/100000000008",
                          "code": "100000000049",
                          "display": "equal to"
                        }
                      }
                    ]
                  },
                  "unit": "microgram(s)",
                  "system": "https://spor.ema.europa.eu/v1/lists/100000110633",
                  "code": "100000110656"
                },
                "denominator": {
                  "value": 1,
                  "unit": "syringe",
                  "system": "https://spor.ema.europa.eu/v1/lists/200000000014",
                  "code": "200000002150"
                }
              },
              "referenceStrength": [
                {
                  "substance": {
                    "concept": {
                      "coding": [
                        {
                          "system": "https://spor.ema.europa.eu/v2/SubstanceDefinition",
                          "code": "300000017594",
                          "display": "B/Washington/02/2019 - like virus (B/Washington/02/2019, wild type)"
                        }
                      ]
                    }
                  },
                  "strengthRatio": {
                    "numerator": {
                      "value": 15,
                      "_comparator": {
                        "extension": [
                          {
                            "url": "http://ema.europa.eu/fhir/extension/comparator",
                            "valueCoding": {
                              "system": "https://spor.ema.europa.eu/v1/lists/100000000008",
                              "code": "100000000049",
                              "display": "equal to"
                            }
                          }
                        ]
                      },
                      "unit": "microgram(s)",
                      "system": "https://spor.ema.europa.eu/v1/lists/100000110633",
                      "code": "100000110656"
                    },
                    "denominator": {
                      "value": 1,
                      "unit": "syringe",
                      "system": "https://spor.ema.europa.eu/v1/lists/200000000014",
                      "code": "200000002150"
                    }
                  }
                }
              ]
            }
          ]
        }
      },
      "request": {
        "method": "PUT",
        "url": "Ingredient/VaxigripTetra-0.5ml-Suspension-SE-AJ-Ingredient04"
      },
      "fullUrl": "https://hl7-eu.github.io/unicom-ig/branches/mpd-r4b/Ingredient/VaxigripTetra-0.5ml-Suspension-SE-AJ-Ingredient04"
    }
  ]
}