{
  "id": "Ventoline2mgmllosningnebulisator-SE-PLC-MedicinalProductDef-BBDL",
  "type": "transaction",
  "resourceType": "Bundle",
  "entry": [
    {
      "resource": {
        "resourceType": "MedicinalProductDefinition",
        "id": "Ventoline2mgmllosningnebulisator-SE-PLC-MedicinalProductDef",
        "meta": {
          "versionId": "1",
          "lastUpdated": "2022-10-24T17:15:32.245+00:00"
        },
        "extension": [
          {
            "url": "http://ema.europa.eu/fhir/extension/authorisedDoseForm",
            "valueCoding": {
              "system": "http://spor.ema.europa.eu/v1/lists/200000000004~200000000006~200000000007~200000000008",
              "code": "100000073835",
              "display": "Nebuliser solution"
            }
          }
        ],
        "identifier": [
          {
            "system": "http://ema.europa.eu/fhir/mpId",
            "value": "SE-100000307-00011088"
          },
          {
            "system": "http://ema.europa.eu/fhir/eurdId",
            "value": "10330"
          }
        ],
        "domain": {
          "coding": [
            {
              "system": "http://spor.ema.europa.eu/v1/lists/100000000004",
              "code": "100000000012",
              "display": "Human use"
            }
          ]
        },
        "status": {
          "coding": [
            {
              "system": "http://spor.ema.europa.eu/v1/lists/200000005003",
              "code": "200000005004",
              "display": "Current"
            }
          ]
        },
        "indication": "F\u00f6r symtomlindring av bronkkonstriktion vid astma och f\u00f6r lindring av sv\u00e5ra akuta och kroniska kramptillst\u00e5nd i luftv\u00e4garna (KOL). Ventoline l\u00f6sning f\u00f6r nebulisator \u00e4r indicerat f\u00f6r vuxna, ungdomar och barn i \u00e5ldern 4 till 11 \u00e5r.",
        "legalStatusOfSupply": {
          "coding": [
            {
              "system": "http://spor.ema.europa.eu/v1/lists/100000072051",
              "code": "100000072084",
              "display": "Medicinal product subject to medical prescription"
            }
          ]
        },
        "classification": [
          {
            "coding": [
              {
                "system": "http://spor.ema.europa.eu/v1/lists/100000093533",
                "code": "100000098065",
                "display": "R03AC02"
              }
            ]
          }
        ],
        "name": [
          {
            "productName": "Ventoline 2 mg/ml l\u00f6sning f\u00f6r nebulisator",
            "namePart": [
              {
                "part": "Ventoline",
                "type": {
                  "coding": [
                    {
                      "system": "http://spor.ema.europa.eu/v1/lists/220000000000",
                      "code": "220000000002",
                      "display": "Invented name part"
                    }
                  ]
                }
              },
              {
                "part": "2 mg/ml",
                "type": {
                  "coding": [
                    {
                      "system": "http://spor.ema.europa.eu/v1/lists/220000000000",
                      "code": "220000000004",
                      "display": "Strength part"
                    }
                  ]
                }
              },
              {
                "part": "l\u00f6sning f\u00f6r nebulisator",
                "type": {
                  "coding": [
                    {
                      "system": "http://spor.ema.europa.eu/v1/lists/220000000000",
                      "code": "220000000005",
                      "display": "Pharmaceutical dose form part"
                    }
                  ]
                }
              }
            ],
            "countryLanguage": [
              {
                "country": {
                  "coding": [
                    {
                      "system": "http://spor.ema.europa.eu/v1/lists/100000000002",
                      "code": "100000000535",
                      "display": "Sweden"
                    }
                  ]
                },
                "language": {
                  "coding": [
                    {
                      "system": "http://spor.ema.europa.eu/v1/lists/100000072057",
                      "code": "100000072288",
                      "display": "Swedish"
                    }
                  ]
                }
              }
            ]
          }
        ]
      },
      "request": {
        "method": "PUT",
        "url": "MedicinalProductDefinition/Ventoline2mgmllosningnebulisator-SE-PLC-MedicinalProductDef"
      },
      "fullUrl": "https://hl7-eu.github.io/unicom-ig/branches/mpd-r4b/MedicinalProductDefinition/Ventoline2mgmllosningnebulisator-SE-PLC-MedicinalProductDef"
    },
    {
      "resource": {
        "resourceType": "RegulatedAuthorization",
        "id": "Ventoline2mgmllosningnebulisator-SE-PLC-RegAutho",
        "meta": {
          "versionId": "1",
          "lastUpdated": "2022-10-24T17:15:32.275+00:00"
        },
        "identifier": [
          {
            "system": "http://ema.europa.eu/fhir/MarketingAuthorizationNumber",
            "value": "11088"
          }
        ],
        "subject": [
          {
            "reference": "MedicinalProductDefinition/Ventoline2mgmllosningnebulisator-SE-PLC-MedicinalProductDef"
          }
        ],
        "type": {
          "coding": [
            {
              "system": "http://spor.ema.europa.eu/v1/lists/220000000060",
              "code": "220000000061",
              "display": "Marketing Authorisation"
            }
          ]
        },
        "region": [
          {
            "coding": [
              {
                "system": "http://spor.ema.europa.eu/v1/lists/100000000002",
                "code": "100000000535",
                "display": "Sweden"
              }
            ]
          }
        ],
        "status": {
          "coding": [
            {
              "system": "http://spor.ema.europa.eu/v1/lists/100000072049",
              "code": "100000072099",
              "display": "Valid"
            }
          ]
        },
        "statusDate": "1990-02-02",
        "holder": {
          "identifier": {
            "system": "https://spor.ema.europa.eu/v1/locations",
            "value": "LOC-100000549"
          },
          "display": "GlaxoSmithKLine AB"
        },
        "case": {
          "type": {
            "coding": [
              {
                "system": "http://ema.europa.eu/fhir/authorisationDateType",
                "code": "dateOfFirstAuthorisation",
                "display": "First Authorisation"
              }
            ]
          },
          "dateDateTime": "1990-02-02"
        }
      },
      "request": {
        "method": "PUT",
        "url": "RegulatedAuthorization/Ventoline2mgmllosningnebulisator-SE-PLC-RegAutho"
      },
      "fullUrl": "https://hl7-eu.github.io/unicom-ig/branches/mpd-r4b/RegulatedAuthorization/Ventoline2mgmllosningnebulisator-SE-PLC-RegAutho"
    },
    {
      "resource": {
        "resourceType": "PackagedProductDefinition",
        "id": "Ventoline2mgmllosningnebulisator-SE-PLC-PackageProductDef",
        "meta": {
          "versionId": "1",
          "lastUpdated": "2022-10-24T17:15:32.299+00:00"
        },
        "extension": [
          {
            "url": "http://ema.europa.eu/fhir/extension/containedItemQuantity",
            "valueQuantity": {
              "value": 60,
              "unit": "Pipette",
              "system": "http://spor.ema.europa.eu/v1/lists/200000000014",
              "code": "200000002139"
            }
          }
        ],
        "packageFor": [
          {
            "reference": "MedicinalProductDefinition/Ventoline2mgmllosningnebulisator-SE-PLC-MedicinalProductDef"
          }
        ],
        "description": "Endosbeh\u00e5llare 6 x 10 x 2,5 ml",
        "_description": {
          "extension": [
            {
              "url": "http://ema.europa.eu/fhir/extension/language",
              "valueCoding": {
                "system": "http://spor.ema.europa.eu/v1/lists/100000072057",
                "code": "100000072288",
                "display": "Swedish"
              }
            }
          ]
        },
        "marketingStatus": [
          {
            "country": {
              "coding": [
                {
                  "system": "http://spor.ema.europa.eu/v1/lists/100000000002",
                  "code": "100000000535",
                  "display": "Sweden"
                }
              ]
            },
            "status": {
              "coding": [
                {
                  "system": "http://spor.ema.europa.eu/v1/lists/100000072052",
                  "code": "100000072083",
                  "display": "Marketed"
                }
              ]
            }
          }
        ],
        "package": {
          "type": {
            "coding": [
              {
                "system": "https://spor.ema.europa.eu/v1/lists/100000073346",
                "code": "100000073498",
                "display": "Box"
              }
            ]
          },
          "quantity": 1,
          "material": [
            {
              "coding": [
                {
                  "system": "https://spor.ema.europa.eu/v1/lists/200000003199",
                  "code": "200000003529",
                  "display": "Cardboard"
                }
              ]
            }
          ],
          "package": [
            {
              "type": {
                "coding": [
                  {
                    "system": "https://spor.ema.europa.eu/v1/lists/100000073346",
                    "code": "100000073540",
                    "display": "Pouch"
                  }
                ]
              },
              "quantity": 6,
              "material": [
                {
                  "coding": [
                    {
                      "system": "https://spor.ema.europa.eu/v1/lists/200000003199",
                      "code": "200000003200",
                      "display": "Aluminium"
                    }
                  ]
                }
              ],
              "containedItem": [
                {
                  "item": {
                    "reference": {
                      "reference": "ManufacturedItemDefinition/Ventoline2mgmllosningnebulisator-SE-PLC-ManufacturedItemDef"
                    }
                  },
                  "amount": {
                    "value": 60,
                    "unit": "Pipette",
                    "system": "http://spor.ema.europa.eu/v1/lists/100000110633~200000000014",
                    "code": "200000002139"
                  }
                }
              ]
            }
          ]
        }
      },
      "request": {
        "method": "PUT",
        "url": "PackagedProductDefinition/Ventoline2mgmllosningnebulisator-SE-PLC-PackageProductDef"
      },
      "fullUrl": "https://hl7-eu.github.io/unicom-ig/branches/mpd-r4b/PackagedProductDefinition/Ventoline2mgmllosningnebulisator-SE-PLC-PackageProductDef"
    },
    {
      "resource": {
        "resourceType": "ManufacturedItemDefinition",
        "id": "Ventoline2mgmllosningnebulisator-SE-PLC-ManufacturedItemDef",
        "meta": {
          "versionId": "1",
          "lastUpdated": "2022-10-24T17:15:32.309+00:00"
        },
        "status": "active",
        "manufacturedDoseForm": {
          "coding": [
            {
              "system": "http://spor.ema.europa.eu/v1/lists/200000000004",
              "code": "100000073835",
              "display": "Nebuliser solution"
            }
          ]
        },
        "unitOfPresentation": {
          "coding": [
            {
              "system": "http://spor.ema.europa.eu/v1/lists/200000000014",
              "code": "200000002139",
              "display": "Pipette"
            }
          ]
        }
      },
      "request": {
        "method": "PUT",
        "url": "ManufacturedItemDefinition/Ventoline2mgmllosningnebulisator-SE-PLC-ManufacturedItemDef"
      },
      "fullUrl": "https://hl7-eu.github.io/unicom-ig/branches/mpd-r4b/ManufacturedItemDefinition/Ventoline2mgmllosningnebulisator-SE-PLC-ManufacturedItemDef"
    },
    {
      "resource": {
        "resourceType": "Ingredient",
        "id": "Ventoline2mgmllosningnebulisator-SE-PLC-Ingredient",
        "meta": {
          "versionId": "1",
          "lastUpdated": "2022-10-24T17:15:32.32+00:00"
        },
        "status": "active",
        "for": [
          {
            "reference": "MedicinalProductDefinition/Ventoline2mgmllosningnebulisator-SE-PLC-MedicinalProductDef"
          },
          {
            "reference": "ManufacturedItemDefinition/Ventoline2mgmllosningnebulisator-SE-PLC-ManufacturedItemDef"
          },
          {
            "reference": "AdministrableProductDefinition/Ventoline2mgmllosningnebulisator-SE-PLC-AdminProductDef"
          }
        ],
        "role": {
          "coding": [
            {
              "system": "https://spor.ema.europa.eu/v1/lists/100000072050",
              "code": "100000072072",
              "display": "Active"
            }
          ]
        },
        "substance": {
          "code": {
            "concept": {
              "coding": [
                {
                  "system": "https://spor.ema.europa.eu/v2/SubstanceDefinition",
                  "code": "100000090564",
                  "display": "Salbutamol sulfate"
                }
              ]
            }
          },
          "strength": [
            {
              "concentrationRatio": {
                "numerator": {
                  "value": 2.4,
                  "_comparator": {
                    "extension": [
                      {
                        "url": "http://ema.europa.eu/fhir/extension/comparator",
                        "valueCoding": {
                          "system": "https://spor.ema.europa.eu/v1/lists/100000000008",
                          "code": "100000000049",
                          "display": "equal to"
                        }
                      }
                    ]
                  },
                  "unit": "milligram(s)",
                  "system": "http://spor.ema.europa.eu/v1/lists/100000110633",
                  "code": "100000110655"
                },
                "denominator": {
                  "value": 1,
                  "unit": "millilitre(s)",
                  "system": "http://spor.ema.europa.eu/v1/lists/100000110633",
                  "code": "100000110662"
                }
              },
              "referenceStrength": [
                {
                  "substance": {
                    "concept": {
                      "coding": [
                        {
                          "system": "https://spor.ema.europa.eu/v2/SubstanceDefinition",
                          "code": "100000091629",
                          "display": "salbutamol"
                        }
                      ]
                    }
                  },
                  "strengthRatio": {
                    "numerator": {
                      "value": 2,
                      "_comparator": {
                        "extension": [
                          {
                            "url": "http://ema.europa.eu/fhir/extension/comparator",
                            "valueCoding": {
                              "system": "https://spor.ema.europa.eu/v1/lists/100000000008",
                              "code": "100000000049",
                              "display": "equal to"
                            }
                          }
                        ]
                      },
                      "unit": "milligram(s)",
                      "system": "https://spor.ema.europa.eu/v1/lists/100000110633",
                      "code": "100000110655"
                    },
                    "denominator": {
                      "value": 1,
                      "unit": "millilitre(s)",
                      "system": "https://spor.ema.europa.eu/v1/lists/200000000014",
                      "code": "100000110662"
                    }
                  }
                }
              ]
            }
          ]
        }
      },
      "request": {
        "method": "PUT",
        "url": "Ingredient/Ventoline2mgmllosningnebulisator-SE-PLC-Ingredient"
      },
      "fullUrl": "https://hl7-eu.github.io/unicom-ig/branches/mpd-r4b/Ingredient/Ventoline2mgmllosningnebulisator-SE-PLC-Ingredient"
    }
  ]
}